time,ax,ay,az,wx,wy,wz,Bx,By,Bz,latitude,longitude,altitude,speed
2024-11-15T22:02:54.229Z,0.1557,0.2476,0.5598,0.1484,-0.0246,0.0142,35.7347,-9.0976,-127.4659,37.422782095345134,-122.16387083758447,29.1097,0.0000
2024-11-15T22:02:54.238Z,0.0364,0.3028,0.1998,0.1747,0.0613,0.1504,35.5325,-9.4797,-127.6748,37.422782095345134,-122.16387083758447,29.1097,0.0000
2024-11-15T22:02:54.249Z,-0.0968,0.4475,-0.5988,0.1111,0.0367,0.2047,35.6661,-9.6463,-127.6689,37.422782095345134,-122.16387083758447,29.1097,0.0000
2024-11-15T22:02:54.258Z,-0.0968,0.4475,-0.5988,0.0461,0.0121,0.2333,35.7982,-9.5431,-127.6805,37.422782095345134,-122.16387083758447,29.1097,0.0000
2024-11-15T22:02:54.268Z,0.0078,0.5418,-0.8005,-0.0137,-0.0203,0.2241,35.7323,-9.7456,-127.5491,37.422782095345134,-122.16387083758447,29.1097,0.0000
2024-11-15T22:02:54.279Z,0.2395,0.5421,-0.7975,-0.0571,-0.1047,0.1678,35.4359,-9.6846,-127.2718,37.422782095345134,-122.16387083758447,29.1097,0.0000
2024-11-15T22:02:54.288Z,0.2395,0.5421,-0.7975,-0.1143,-0.2601,0.0776,35.6161,-9.7392,-127.2762,37.422782095345134,-122.16387083758447,29.1097,0.0000
2024-11-15T22:02:54.299Z,0.1778,0.4737,-0.6282,-0.1809,-0.3960,-0.0291,35.3873,-9.7343,-127.6184,37.422782095345134,-122.16387083758447,29.1097,0.0000
2024-11-15T22:02:54.308Z,-0.0483,0.7346,-0.3775,-0.2277,-0.5053,-0.0927,35.1290,-9.5932,-127.8250,37.422782095345134,-122.16387083758447,29.1097,0.0000
2024-11-15T22:02:54.318Z,-0.0483,0.7346,-0.3775,-0.2672,-0.6091,-0.1627,34.9064,-9.4002,-127.9393,37.422782095345134,-122.16387083758447,29.1097,0.0000
2024-11-15T22:02:54.329Z,-0.1428,0.7036,-0.0282,-0.3085,-0.6810,-0.2586,34.4443,-9.2173,-128.1188,37.422782095345134,-122.16387083758447,29.1097,0.0000
2024-11-15T22:02:54.338Z,-0.1428,0.7036,-0.0282,-0.2937,-0.6968,-0.2716,34.4443,-9.2173,-128.1188,37.422782095345134,-122.16387083758447,29.1097,0.0000
2024-11-15T22:02:54.349Z,0.1385,0.4308,0.2882,-0.2190,-0.6611,-0.2272,33.9546,-9.0943,-128.5362,37.422782095345134,-122.16387083758447,29.1097,0.0000
2024-11-15T22:02:54.358Z,-0.0530,0.4846,0.5187,-0.1234,-0.5894,-0.1569,33.6574,-8.7505,-128.2650,37.422782095345134,-122.16387083758447,29.1097,0.0000
2024-11-15T22:02:54.369Z,-0.2533,0.6041,0.5291,-0.0306,-0.4968,-0.0666,33.2747,-8.5689,-128.8173,37.422782095345134,-122.16387083758447,29.1097,0.0000
2024-11-15T22:02:54.379Z,-0.2533,0.6041,0.5291,0.0463,-0.3878,0.0202,33.2037,-8.5999,-128.8214,37.422782095345134,-122.16387083758447,29.1097,0.0000
2024-11-15T22:02:54.389Z,-0.2980,0.7543,0.1843,0.0725,-0.2542,0.0845,32.7847,-8.6458,-129.1554,37.422782095345134,-122.16387083758447,29.1097,0.0000
2024-11-15T22:02:54.400Z,-0.0894,1.2870,-0.8800,0.0725,-0.2542,0.0845,32.6084,-8.5531,-129.1202,37.422782095345134,-122.16387083758447,29.1097,0.0000
2024-11-15T22:02:54.409Z,-0.0894,1.2870,-0.8800,0.0317,-0.0093,0.1099,32.7477,-8.6028,-129.1618,37.422782095345134,-122.16387083758447,29.1097,0.0000
2024-11-15T22:02:54.418Z,0.0235,1.5212,-1.3035,0.0317,-0.0093,0.1099,32.5723,-8.7048,-128.8699,37.422782095345134,-122.16387083758447,29.1097,0.0000
2024-11-15T22:02:54.429Z,0.0235,1.5212,-1.3035,-0.0251,0.1181,0.1058,32.6930,-8.9171,-128.8682,37.422782095345134,-122.16387083758447,29.1097,0.0000
2024-11-15T22:02:54.439Z,-0.2362,1.9865,-1.5325,-0.0618,0.0961,0.1490,32.5317,-8.6385,-129.0314,37.422782095345134,-122.16387083758447,29.1097,0.0000
2024-11-15T22:02:54.449Z,-0.4975,2.1293,-1.5863,-0.0618,0.0961,0.1490,32.7852,-8.6460,-128.9665,37.422782095345134,-122.16387083758447,29.1097,0.0000
2024-11-15T22:02:54.458Z,-0.4975,2.1293,-1.5863,-0.1025,0.0491,0.1882,32.9129,-8.9210,-128.9505,37.422782095345134,-122.16387083758447,29.1097,0.0000
2024-11-15T22:02:54.468Z,-0.9863,2.2809,-1.3390,-0.1574,0.0115,0.2198,32.8455,-8.6846,-128.9335,37.422782095345134,-122.16387083758447,29.1097,0.0000
2024-11-15T22:02:54.478Z,-0.8460,2.3227,-1.1662,-0.1920,-0.0180,0.2369,32.7121,-8.6270,-129.1573,37.422782095345134,-122.16387083758447,29.1097,0.0000
2024-11-15T22:02:54.488Z,-0.8460,2.3227,-1.1662,-0.2020,-0.0341,0.2316,32.5704,-8.4666,-129.1733,37.422782095345134,-122.16387083758447,29.1097,0.0000
2024-11-15T22:02:54.499Z,-0.4909,2.0862,-0.8735,-0.1907,-0.0101,0.2070,32.6720,-8.5301,-128.9790,37.422782095345134,-122.16387083758447,29.1097,0.0000
2024-11-15T22:02:54.508Z,-0.3573,2.0763,-0.6602,-0.1777,0.0466,0.1748,32.8678,-8.4814,-128.9870,37.422782095345134,-122.16387083758447,29.1097,0.0000
2024-11-15T22:02:54.518Z,-0.3573,2.0763,-0.6602,-0.1711,0.1098,0.1378,32.8621,-8.4965,-128.6914,37.422782095345134,-122.16387083758447,29.1097,0.0000
2024-11-15T22:02:54.528Z,-0.0727,1.9288,-0.7639,-0.1685,0.1817,0.1113,33.0344,-8.3958,-128.9083,37.422782095345134,-122.16387083758447,29.1097,0.0000
2024-11-15T22:02:54.538Z,-0.1814,1.9745,-0.7874,-0.1677,0.2418,0.1028,33.2310,-8.3776,-128.4976,37.422782095345134,-122.16387083758447,29.1097,0.0000
2024-11-15T22:02:54.551Z,-0.5788,2.0365,-0.7979,-0.1651,0.2959,0.1267,33.2415,-8.1665,-128.6552,37.422782095345134,-122.16387083758447,29.1097,0.0000
2024-11-15T22:02:54.559Z,-0.5788,2.0365,-0.7979,-0.1478,0.3529,0.1651,33.4156,-8.4175,-128.6464,37.422782095345134,-122.16387083758447,29.1097,0.0000
2024-11-15T22:02:54.569Z,-0.5521,2.0401,-0.7775,-0.1207,0.4045,0.1803,33.6290,-8.3964,-128.5349,37.422782095345134,-122.16387083758447,29.1097,0.0000
2024-11-15T22:02:54.578Z,-0.5521,2.0401,-0.7775,-0.0865,0.4731,0.1886,33.9368,-8.4016,-128.2314,37.422782095345134,-122.16387083758447,29.1097,0.0000
2024-11-15T22:02:54.588Z,-0.2995,1.9617,-0.6763,-0.0370,0.5270,0.1779,34.1405,-8.4944,-127.8688,37.422782095345134,-122.16387083758447,29.1097,0.0000
2024-11-15T22:02:54.599Z,-0.0721,1.9626,-0.6119,0.0247,0.5490,0.1389,34.5242,-8.2335,-127.7364,37.422782095345134,-122.16387083758447,29.1097,0.0000
2024-11-15T22:02:54.608Z,-0.0721,1.9626,-0.6119,0.0848,0.5378,0.0829,34.8858,-8.6634,-127.9803,37.422782095345134,-122.16387083758447,29.1097,0.0000
2024-11-15T22:02:54.618Z,0.1871,2.0167,-0.7331,0.1166,0.4887,0.0168,35.0803,-8.5578,-127.4929,37.422782095345134,-122.16387083758447,29.1097,0.0000
2024-11-15T22:02:54.628Z,0.2977,2.0551,-0.9185,0.1169,0.4279,-0.0494,35.1495,-8.6711,-127.6022,37.422782095345134,-122.16387083758447,29.1097,0.0000
2024-11-15T22:02:54.638Z,0.2977,2.0551,-0.9185,0.0788,0.3687,-0.0913,35.4585,-8.7020,-127.4709,37.422782095345134,-122.16387083758447,29.1097,0.0000
2024-11-15T22:02:54.651Z,0.1584,2.1681,-1.0883,0.0253,0.3214,-0.1097,35.6398,-8.5891,-127.3394,37.422782095345134,-122.16387083758447,29.1097,0.0000
2024-11-15T22:02:54.659Z,0.0149,2.1608,-0.9107,-0.0091,0.2876,-0.1095,35.8045,-8.5520,-127.3418,37.422782095345134,-122.16387083758447,29.1097,0.0000
2024-11-15T22:02:54.669Z,0.0149,2.1608,-0.9107,-0.0170,0.2723,-0.1069,35.9929,-8.7045,-127.2789,37.422782095345134,-122.16387083758447,29.1097,0.0000
2024-11-15T22:02:54.678Z,-0.0871,2.0480,-0.0420,0.0047,0.2716,-0.1138,35.9929,-8.7045,-127.2789,37.422782095345134,-122.16387083758447,29.1097,0.0000
2024-11-15T22:02:54.688Z,-0.0087,2.0132,0.3861,0.0369,0.2780,-0.1239,36.0445,-8.5712,-127.1132,37.422782095345134,-122.16387083758447,29.1097,0.0000
2024-11-15T22:02:54.700Z,-0.0087,2.0132,0.3861,0.0785,0.2582,-0.1434,36.2180,-8.6557,-126.6617,37.422782095345134,-122.16387083758447,29.1097,0.0000
2024-11-15T22:02:54.709Z,0.0385,1.8723,0.9761,0.1247,0.2016,-0.1758,36.4875,-8.6445,-127.0761,37.422782095345134,-122.16387083758447,29.1097,0.0000
2024-11-15T22:02:54.718Z,0.0714,1.7898,1.2252,0.1808,0.1264,-0.2137,36.5045,-8.6053,-126.7260,37.422782095345134,-122.16387083758447,29.1097,0.0000
2024-11-15T22:02:54.728Z,0.0714,1.7898,1.2252,0.2309,0.0392,-0.2518,36.3353,-8.4328,-127.0661,37.422782095345134,-122.16387083758447,29.1097,0.0000
2024-11-15T22:02:54.738Z,0.0234,1.4192,1.6952,0.2542,-0.0359,-0.2785,36.4129,-8.5945,-127.0748,37.422782095345134,-122.16387083758447,29.1097,0.0000
2024-11-15T22:02:54.749Z,0.0150,1.3210,1.7919,0.2332,-0.0989,-0.2955,36.3983,-8.7108,-126.7673,37.422782095345134,-122.16387083758447,29.1097,0.0000
2024-11-15T22:02:54.759Z,0.0150,1.3210,1.7919,0.1754,-0.1677,-0.2812,36.0919,-8.4952,-126.9438,37.422782095345134,-122.16387083758447,29.1097,0.0000
2024-11-15T22:02:54.768Z,-0.1981,1.0398,1.9034,0.1157,-0.2590,-0.2496,36.1735,-8.7576,-127.2657,37.422782095345134,-122.16387083758447,29.1097,0.0000
2024-11-15T22:02:54.778Z,-0.1950,0.9354,1.9719,0.0787,-0.3784,-0.2391,36.0145,-8.5538,-127.0769,37.422782095345134,-122.16387083758447,29.1097,0.0000
2024-11-15T22:02:54.788Z,-0.1950,0.9354,1.9719,0.0646,-0.4484,-0.2597,35.9686,-8.5578,-127.0749,37.422782095345134,-122.16387083758447,29.1097,0.0000
2024-11-15T22:02:54.800Z,0.6214,1.2690,2.3064,0.0551,-0.4055,-0.2869,35.6612,-8.2965,-127.1592,37.422782095345134,-122.16387083758447,29.1097,0.0000
2024-11-15T22:02:54.809Z,0.7562,1.1349,2.5015,0.0640,-0.2592,-0.2871,35.7544,-8.3883,-127.3530,37.422782095345134,-122.16387083758447,29.1097,0.0000
2024-11-15T22:02:54.818Z,0.7562,1.1349,2.5015,0.0974,-0.0758,-0.2789,35.5786,-8.4001,-127.4258,37.422782095345134,-122.16387083758447,29.1097,0.0000
2024-11-15T22:02:54.828Z,0.4286,0.2441,2.9509,0.1793,0.0982,-0.2648,35.4137,-8.3288,-127.2366,37.422782095345134,-122.16387083758447,29.1097,0.0000
2024-11-15T22:02:54.838Z,0.2911,-0.1102,3.1348,0.3141,0.2270,-0.2377,35.6983,-8.4761,-126.8961,37.422782095345134,-122.16387083758447,29.1097,0.0000
2024-11-15T22:02:54.849Z,0.2911,-0.1102,3.1348,0.4943,0.2644,-0.2079,35.8256,-8.8980,-127.1478,37.422782095345134,-122.16387083758447,29.1097,0.0000
2024-11-15T22:02:54.858Z,0.1360,-0.4162,3.0613,0.6813,0.2306,-0.2014,35.6809,-9.0717,-126.7816,37.422782095345134,-122.16387083758447,29.1097,0.0000
2024-11-15T22:02:54.869Z,0.3363,-0.3469,2.4909,0.7966,0.1708,-0.2217,36.0066,-9.3258,-126.7374,37.422782095345134,-122.16387083758447,29.1097,0.0000
2024-11-15T22:02:54.878Z,0.3363,-0.3469,2.4909,0.8035,0.1189,-0.2532,36.1269,-9.8026,-126.4549,37.422782095345134,-122.16387083758447,29.1097,0.0000
2024-11-15T22:02:54.888Z,0.8212,0.0394,0.5388,0.7400,0.0605,-0.2799,36.0173,-9.9403,-126.5479,37.422782095345134,-122.16387083758447,29.1097,0.0000
2024-11-15T22:02:54.899Z,0.9588,0.2606,-0.2416,0.6103,-0.0102,-0.3057,36.0879,-10.1737,-126.4848,37.422782095345134,-122.16387083758447,29.1097,0.0000
2024-11-15T22:02:54.909Z,0.9588,0.2606,-0.2416,0.4330,-0.0821,-0.3139,35.9877,-10.3845,-126.2423,37.422782095345134,-122.16387083758447,29.1097,0.0000
2024-11-15T22:02:54.918Z,1.0728,0.8841,-1.4081,0.2335,-0.1417,-0.2892,35.7757,-10.4344,-126.3181,37.422782095345134,-122.16387083758447,29.1097,0.0000
2024-11-15T22:02:54.929Z,0.9454,0.9995,-1.6953,0.0438,-0.1652,-0.2310,35.6931,-10.2039,-126.4157,37.422782095345134,-122.16387083758447,29.1097,0.0000
2024-11-15T22:02:54.938Z,0.9454,0.9995,-1.6953,-0.1079,-0.1609,-0.1521,35.7939,-10.0522,-126.1528,37.422782095345134,-122.16387083758447,29.1097,0.0000
2024-11-15T22:02:54.949Z,0.6715,0.9868,-1.7480,-0.2173,-0.1291,-0.0647,35.6867,-10.0539,-126.3424,37.422782095345134,-122.16387083758447,29.1097,0.0000
2024-11-15T22:02:54.959Z,0.5186,0.8216,-1.6668,-0.2798,-0.0863,0.0150,35.5263,-9.6602,-125.7894,37.422782095345134,-122.16387083758447,29.1097,0.0000
2024-11-15T22:02:54.969Z,0.5186,0.8216,-1.6668,-0.2919,-0.0530,0.0784,35.6674,-9.6679,-125.9749,37.422782095345134,-122.16387083758447,29.1097,0.0000
2024-11-15T22:02:54.979Z,0.2541,0.5272,-1.6095,-0.2717,-0.0334,0.1301,35.3551,-9.7091,-126.1334,37.422782095345134,-122.16387083758447,29.1097,0.0000
2024-11-15T22:02:54.989Z,0.1687,0.3900,-1.6766,-0.2141,-0.0197,0.1722,35.4874,-9.5245,-126.1042,37.422782095345134,-122.16387083758447,29.1097,0.0000
2024-11-15T22:02:54.999Z,0.1687,0.3900,-1.6766,-0.1416,-0.0121,0.1961,35.4874,-9.5245,-126.1042,37.422782095345134,-122.16387083758447,29.1097,0.0000
2024-11-15T22:02:55.008Z,0.2615,0.3239,-1.9780,-0.0686,-0.0292,0.1990,35.5922,-9.5930,-125.9629,37.422782095345134,-122.16387083758447,29.1097,0.0000
2024-11-15T22:02:55.018Z,0.3832,0.3815,-2.3210,-0.0244,-0.0554,0.1897,35.4070,-9.5119,-125.7642,37.422782095345134,-122.16387083758447,29.1097,0.0000
2024-11-15T22:02:55.028Z,0.3832,0.3815,-2.3210,0.0018,-0.0682,0.1826,35.4532,-9.6756,-126.0127,37.422782095345134,-122.16387083758447,29.1097,0.0000
2024-11-15T22:02:55.038Z,0.5058,0.3560,-2.9753,0.0152,-0.0539,0.1804,35.5100,-9.6104,-126.0227,37.422782095345134,-122.16387083758447,29.1097,0.0000
2024-11-15T22:02:55.049Z,0.5527,0.3233,-3.0326,0.0418,-0.0231,0.1771,35.3491,-9.6812,-126.0919,37.422782095345134,-122.16387083758447,29.1097,0.0000
2024-11-15T22:02:55.059Z,0.5527,0.3233,-3.0326,0.1074,0.0157,0.1666,35.0920,-9.9590,-126.0131,37.422782095345134,-122.16387083758447,29.1097,0.0000
2024-11-15T22:02:55.068Z,0.7667,0.1709,-2.6519,0.2170,0.0538,0.1316,35.1480,-9.8838,-126.0412,37.422782095345134,-122.16387083758447,29.1097,0.0000
2024-11-15T22:02:55.078Z,0.9468,0.1759,-2.4255,0.3273,0.0830,0.0792,35.3089,-10.2516,-125.7796,37.422782095345134,-122.16387083758447,29.1097,0.0000
2024-11-15T22:02:55.088Z,0.9468,0.1759,-2.4255,0.3959,0.0991,0.0203,35.3072,-10.2681,-125.8839,37.422782095345134,-122.16387083758447,29.1097,0.0000
2024-11-15T22:02:55.099Z,1.1048,0.3891,-2.6875,0.3830,0.1106,-0.0226,35.5018,-10.4515,-125.6630,37.422782095345134,-122.16387083758447,29.1097,0.0000
2024-11-15T22:02:55.108Z,0.9779,0.4704,-2.8746,0.2991,0.1238,-0.0477,35.5637,-10.6178,-125.7356,37.422782095345134,-122.16387083758447,29.1097,0.0000
2024-11-15T22:02:55.118Z,0.9779,0.4704,-2.8746,0.1738,0.1277,-0.0484,35.4384,-10.8796,-125.7145,37.422782095345134,-122.16387083758447,29.1097,0.0000
2024-11-15T22:02:55.128Z,0.5980,0.7546,-2.5963,0.0331,0.1298,-0.0283,35.5778,-10.8582,-125.7325,37.422782095345134,-122.16387083758447,29.1097,0.0000
2024-11-15T22:02:55.138Z,0.4267,0.9193,-2.2026,-0.1046,0.1198,0.0093,35.6319,-10.9001,-125.7338,37.422782095345134,-122.16387083758447,29.1097,0.0000
2024-11-15T22:02:55.149Z,0.4267,0.9193,-2.2026,-0.2010,0.1134,0.0512,35.9216,-10.8116,-125.5781,37.422782095345134,-122.16387083758447,29.1097,0.0000
2024-11-15T22:02:55.158Z,0.1620,0.9114,-0.7548,-0.2177,0.0979,0.0936,35.7839,-10.7950,-125.9710,37.422782095345134,-122.16387083758447,29.1097,0.0000
2024-11-15T22:02:55.169Z,0.0975,0.8545,0.2688,-0.1412,0.0860,0.1337,35.9239,-10.6730,-125.8752,37.422782095345134,-122.16387083758447,29.1097,0.0000
2024-11-15T22:02:55.178Z,0.0975,0.8545,0.2688,0.0259,0.0796,0.1540,35.8580,-10.7035,-125.7393,37.422782095345134,-122.16387083758447,29.1097,0.0000
2024-11-15T22:02:55.188Z,0.2950,0.9340,2.2186,0.2155,0.1042,0.1539,35.9255,-10.9794,-125.5886,37.422782095345134,-122.16387083758447,29.1097,0.0000
2024-11-15T22:02:55.200Z,0.3467,0.8708,2.6135,0.3405,0.1604,0.1400,35.8685,-11.2592,-125.6009,37.422782095345134,-122.16387083758447,29.1097,0.0000
2024-11-15T22:02:55.209Z,0.3467,0.8708,2.6135,0.3406,0.2411,0.1415,36.0681,-11.3822,-125.5337,37.422782095345134,-122.16387083758447,29.1097,0.0000
2024-11-15T22:02:55.218Z,-0.1427,0.4003,2.2414,0.2336,0.3591,0.1707,36.1761,-11.5249,-125.7918,37.422782095345134,-122.16387083758447,29.1097,0.0000
2024-11-15T22:02:55.229Z,-0.5779,0.1098,2.1596,0.0666,0.4624,0.2432,36.4387,-11.7004,-125.2236,37.422782095345134,-122.16387083758447,29.1097,0.0000
2024-11-15T22:02:55.238Z,-0.5779,0.1098,2.1596,-0.0934,0.5033,0.3436,36.9256,-11.8577,-125.0329,37.422782095345134,-122.16387083758447,29.1097,0.0000
2024-11-15T22:02:55.250Z,-1.3249,-0.2235,2.5641,-0.2099,0.4448,0.4242,36.6796,-11.9458,-124.9952,37.422782095345134,-122.16387083758447,29.1097,0.0000
2024-11-15T22:02:55.259Z,-1.2983,-0.2772,2.8637,-0.2746,0.2535,0.4402,36.9104,-11.8547,-124.8871,37.422782095345134,-122.16387083758447,29.1097,0.0000
2024-11-15T22:02:55.269Z,-1.2983,-0.2772,2.8637,-0.3209,-0.0137,0.3640,37.0315,-11.7397,-124.5960,37.422782095345134,-122.16387083758447,29.1097,0.0000
2024-11-15T22:02:55.279Z,-0.1771,0.2447,2.7183,-0.4186,-0.2236,0.2327,36.6711,-11.5476,-124.7887,37.422782095345134,-122.16387083758447,29.1097,0.0000
2024-11-15T22:02:55.289Z,0.3408,0.5918,2.2380,-0.5981,-0.2879,0.1303,36.6711,-11.5476,-124.7887,37.422782095345134,-122.16387083758447,29.1097,0.0000
2024-11-15T22:02:55.299Z,0.3408,0.5918,2.2380,-0.7783,-0.2447,0.1043,36.3854,-11.1176,-124.5106,37.422782095345134,-122.16387083758447,29.1097,0.0000
2024-11-15T22:02:55.309Z,-0.3150,-0.2389,1.9879,-0.8979,-0.1459,0.1455,36.0286,-10.3739,-124.9834,37.422782095345134,-122.16387083758447,29.1097,0.0000
2024-11-15T22:02:55.320Z,-0.8798,-0.6032,2.4882,-0.8990,-0.0521,0.2316,36.0286,-10.3739,-124.9834,37.422782095345134,-122.16387083758447,29.1097,0.0000
2024-11-15T22:02:55.328Z,-0.8798,-0.6032,2.4882,-0.7790,-0.0055,0.3162,36.2288,-10.1829,-125.0914,37.422782095345134,-122.16387083758447,29.1097,0.0000
2024-11-15T22:02:55.338Z,-1.4054,-1.2916,3.6766,-0.5607,-0.0208,0.3630,36.0295,-9.8561,-125.3820,37.422782095345134,-122.16387083758447,29.1097,0.0000
2024-11-15T22:02:55.351Z,-1.2418,-1.4165,3.8731,-0.2616,-0.1009,0.3471,36.0605,-9.7492,-125.2732,37.422782095345134,-122.16387083758447,29.1097,0.0000
2024-11-15T22:02:55.359Z,-1.2418,-1.4165,3.8731,0.0691,-0.2289,0.2488,36.0627,-9.7804,-125.2931,37.422782095345134,-122.16387083758447,29.1097,0.0000
2024-11-15T22:02:55.368Z,-0.1719,-0.7973,3.1143,0.3316,-0.3270,0.0972,35.8292,-9.8332,-125.4305,37.422782095345134,-122.16387083758447,29.1097,0.0000
2024-11-15T22:02:55.379Z,0.3101,-0.2984,2.0329,0.4758,-0.3448,-0.0350,35.7800,-10.3839,-125.2126,37.422782095345134,-122.16387083758447,29.1097,0.0000
2024-11-15T22:02:55.388Z,0.3101,-0.2984,2.0329,0.4895,-0.2732,-0.1123,35.4804,-10.4664,-125.4809,37.422782095345134,-122.16387083758447,29.1097,0.0000
2024-11-15T22:02:55.399Z,0.2197,0.3259,-0.1967,0.3710,-0.1456,-0.1265,35.4400,-10.8813,-125.1965,37.422782095345134,-122.16387083758447,29.1097,0.0000
2024-11-15T22:02:55.409Z,-0.1143,0.5484,-1.0777,0.1498,0.0147,-0.0586,35.7845,-11.0027,-125.3001,37.422782095345134,-122.16387083758447,29.1097,0.0000
2024-11-15T22:02:55.418Z,-0.1143,0.5484,-1.0777,-0.0817,0.2074,0.1035,35.6363,-10.9895,-125.4414,37.422782095345134,-122.16387083758447,29.1097,0.0000
2024-11-15T22:02:55.428Z,-1.0241,0.6225,-1.5795,-0.2408,0.4057,0.3229,35.8562,-11.0509,-125.0486,37.422782095345134,-122.16387083758447,29.1097,0.0000
2024-11-15T22:02:55.439Z,-1.1584,0.6359,-1.0034,-0.2879,0.5571,0.5383,36.0600,-10.9010,-124.9795,37.422782095345134,-122.16387083758447,29.1097,0.0000
2024-11-15T22:02:55.450Z,-1.1584,0.6359,-1.0034,-0.2474,0.6264,0.6714,36.1980,-10.8107,-124.9127,37.422782095345134,-122.16387083758447,29.1097,0.0000
2024-11-15T22:02:55.458Z,-0.5894,0.3487,-0.1036,-0.1523,0.6396,0.7183,36.5593,-11.1576,-124.7779,37.422782095345134,-122.16387083758447,29.1097,0.0000
2024-11-15T22:02:55.468Z,-0.5894,0.3487,-0.1036,-0.0104,0.5978,0.6876,36.7213,-11.2515,-124.5014,37.422782095345134,-122.16387083758447,29.1097,0.0000
2024-11-15T22:02:55.478Z,-0.1133,0.0350,0.0934,0.1556,0.5068,0.5945,37.0105,-11.4548,-124.0699,37.422782095345134,-122.16387083758447,29.1097,0.0000
2024-11-15T22:02:55.488Z,0.7043,-0.1383,-0.2183,0.3204,0.3640,0.4600,37.1626,-11.7785,-123.9053,37.422782095345134,-122.16387083758447,29.1097,0.0000
2024-11-15T22:02:55.501Z,0.9539,-0.0854,-0.7358,0.4438,0.1891,0.3177,37.2254,-12.0984,-123.8424,37.422782095345134,-122.16387083758447,29.1097,0.0000
2024-11-15T22:02:55.508Z,0.9539,-0.0854,-0.7358,0.4985,0.0377,0.2078,37.1644,-12.6046,-124.0311,37.422782095345134,-122.16387083758447,29.1097,0.0000
2024-11-15T22:02:55.519Z,0.9457,0.1115,-2.1692,0.4727,-0.0643,0.1316,37.1059,-12.9234,-123.8592,37.422782095345134,-122.16387083758447,29.1097,0.0000
2024-11-15T22:02:55.528Z,0.9457,0.1115,-2.1692,0.3954,-0.1061,0.0943,36.9799,-12.9948,-123.6385,37.422782095345134,-122.16387083758447,29.1097,0.0000
2024-11-15T22:02:55.539Z,0.7954,0.1824,-2.7753,0.3051,-0.1216,0.0980,36.9382,-13.0238,-123.7439,37.422782095345134,-122.16387083758447,29.1097,0.0000
2024-11-15T22:02:55.549Z,0.3517,0.3330,-3.1749,0.2438,-0.1328,0.1332,37.0291,-13.4169,-123.5351,37.422782095345134,-122.16387083758447,29.1097,0.0000
2024-11-15T22:02:55.559Z,0.2205,0.4578,-3.0455,0.2301,-0.1616,0.1784,36.7561,-13.4191,-123.4618,37.422782095345134,-122.16387083758447,29.1097,0.0000
2024-11-15T22:02:55.569Z,0.2205,0.4578,-3.0455,0.2507,-0.1910,0.2066,36.7181,-13.5337,-123.8806,37.422782095345134,-122.16387083758447,29.1097,0.0000
2024-11-15T22:02:55.579Z,0.3835,0.6580,-2.6947,0.2866,-0.1971,0.2095,36.6133,-13.8225,-123.5331,37.422782095345134,-122.16387083758447,29.1097,0.0000
2024-11-15T22:02:55.589Z,0.3835,0.6580,-2.6947,0.3220,-0.1720,0.1738,36.6060,-14.1093,-123.4752,37.422782095345134,-122.16387083758447,29.1097,0.0000
2024-11-15T22:02:55.600Z,0.5677,0.6181,-2.5914,0.3520,-0.1268,0.1136,36.3884,-14.5316,-123.5584,37.422782095345134,-122.16387083758447,29.1097,0.0000
2024-11-15T22:02:55.609Z,0.7882,0.5879,-2.4424,0.3708,-0.0819,0.0534,36.3731,-14.6200,-123.6147,37.422782095345134,-122.16387083758447,29.1097,0.0000
2024-11-15T22:02:55.620Z,0.7882,0.5879,-2.4424,0.3691,-0.0280,0.0094,36.3467,-14.7854,-123.6032,37.422782095345134,-122.16387083758447,29.1097,0.0000
2024-11-15T22:02:55.628Z,0.7213,0.5598,-2.3204,0.3512,0.0153,-0.0013,36.3467,-14.7854,-123.6032,37.422782095345134,-122.16387083758447,29.1097,0.0000
2024-11-15T22:02:55.638Z,0.3358,0.7985,-2.0251,0.3019,0.0458,0.0130,36.3746,-15.1393,-123.6683,37.422782095345134,-122.16387083758447,29.1097,0.0000
2024-11-15T22:02:55.651Z,0.1361,0.8654,-1.8727,0.2200,0.0873,0.0363,36.4055,-15.2210,-123.7197,37.422782095345134,-122.16387083758447,29.1097,0.0000
2024-11-15T22:02:55.659Z,0.1361,0.8654,-1.8727,0.1158,0.1285,0.0516,36.3805,-15.3857,-123.4549,37.422782095345134,-122.16387083758447,29.1097,0.0000
2024-11-15T22:02:55.668Z,0.0850,0.9255,-1.3444,0.0314,0.1532,0.0518,36.6348,-15.4635,-123.0928,37.422782095345134,-122.16387083758447,29.1097,0.0000
2024-11-15T22:02:55.678Z,0.0850,0.9255,-1.3444,-0.0145,0.1521,0.0280,36.6857,-15.4876,-123.0454,37.422782095345134,-122.16387083758447,29.1097,0.0000
2024-11-15T22:02:55.688Z,0.1302,0.9422,-0.8143,0.0030,0.1267,-0.0240,36.7883,-15.4194,-123.0565,37.422782095345134,-122.16387083758447,29.1097,0.0000
2024-11-15T22:02:55.700Z,0.3665,0.9188,0.6620,0.0936,0.0800,-0.0995,36.8827,-15.4201,-123.0297,37.422782095345134,-122.16387083758447,29.1097,0.0000
2024-11-15T22:02:55.708Z,0.3665,0.9188,0.6620,0.2323,0.0202,-0.2053,36.7893,-15.5483,-122.9780,37.422782095345134,-122.16387083758447,29.1097,0.0000
2024-11-15T22:02:55.718Z,0.5056,0.9137,1.5400,0.3845,-0.0644,-0.3351,36.7299,-15.6163,-122.9038,37.422782095345134,-122.16387083758447,29.1097,0.0000
2024-11-15T22:02:55.728Z,0.8162,0.7743,2.6110,0.5198,-0.1302,-0.4662,36.7683,-15.6761,-123.0107,37.422782095345134,-122.16387083758447,29.1097,0.0000
2024-11-15T22:02:55.738Z,0.8162,0.7743,2.6110,0.6001,-0.1901,-0.5720,36.6976,-15.6462,-123.0102,37.422782095345134,-122.16387083758447,29.1097,0.0000
2024-11-15T22:02:55.749Z,0.7893,0.7693,2.8229,0.6005,-0.2299,-0.6204,36.7475,-15.8808,-122.6942,37.422782095345134,-122.16387083758447,29.1097,0.0000
2024-11-15T22:02:55.758Z,0.2394,0.7503,2.3965,0.5231,-0.2676,-0.6104,36.7545,-15.9051,-122.7729,37.422782095345134,-122.16387083758447,29.1097,0.0000
2024-11-15T22:02:55.768Z,0.2394,0.7503,2.3965,0.4096,-0.3405,-0.5666,36.5345,-15.9214,-122.3945,37.422782095345134,-122.16387083758447,29.1097,0.0000
2024-11-15T22:02:55.778Z,-0.1390,0.6816,2.1782,0.3056,-0.4626,-0.5233,36.3646,-16.0501,-122.5117,37.422782095345134,-122.16387083758447,29.1097,0.0000
2024-11-15T22:02:55.788Z,0.0874,1.3468,1.9754,0.2018,-0.5723,-0.5037,36.1479,-15.9573,-122.8674,37.422782095345134,-122.16387083758447,29.1097,0.0000
2024-11-15T22:02:55.801Z,0.5697,1.8906,1.8632,0.0788,-0.5898,-0.4899,35.9404,-15.6829,-122.7500,37.422782095345134,-122.16387083758447,29.1097,0.0000
2024-11-15T22:02:55.809Z,0.5697,1.8906,1.8632,-0.0579,-0.4587,-0.4478,35.7851,-15.7536,-123.1798,37.422782095345134,-122.16387083758447,29.1097,0.0000
2024-11-15T22:02:55.819Z,0.6584,1.6819,1.8532,-0.1743,-0.1975,-0.3694,35.6944,-15.5645,-122.8522,37.422782095345134,-122.16387083758447,29.1097,0.0000
2024-11-15T22:02:55.828Z,0.6584,1.6819,1.8532,-0.2217,0.0829,-0.2515,35.7489,-15.1408,-123.0705,37.422782095345134,-122.16387083758447,29.1097,0.0000
2024-11-15T22:02:55.838Z,0.2745,1.1179,2.2051,-0.1692,0.2915,-0.1322,35.9124,-15.0705,-122.8191,37.422782095345134,-122.16387083758447,29.1097,0.0000
2024-11-15T22:02:55.849Z,-0.3548,-0.1259,3.0874,-0.0566,0.4122,-0.0573,35.9459,-15.1258,-122.7706,37.422782095345134,-122.16387083758447,29.1097,0.0000
2024-11-15T22:02:55.859Z,-0.3548,-0.1259,3.0874,0.0890,0.4376,-0.0296,36.2712,-15.1277,-122.8494,37.422782095345134,-122.16387083758447,29.1097,0.0000
2024-11-15T22:02:55.868Z,-0.1616,-0.3518,3.1569,0.2371,0.4218,-0.0418,36.3118,-15.2289,-122.4742,37.422782095345134,-122.16387083758447,29.1097,0.0000
2024-11-15T22:02:55.878Z,0.1265,-0.6334,2.4630,0.3457,0.3780,-0.0904,36.5168,-15.3904,-122.0623,37.422782095345134,-122.16387083758447,29.1097,0.0000
2024-11-15T22:02:55.888Z,0.1265,-0.6334,2.4630,0.3884,0.2940,-0.1541,36.7449,-15.2849,-121.7991,37.422782095345134,-122.16387083758447,29.1097,0.0000
2024-11-15T22:02:55.899Z,0.3939,-0.4925,1.7241,0.3368,0.1717,-0.2115,36.8622,-15.4880,-121.8291,37.422782095345134,-122.16387083758447,29.1097,0.0000
2024-11-15T22:02:55.908Z,0.6610,0.0757,-0.2176,0.2009,0.0348,-0.2487,36.8124,-15.5141,-121.5239,37.422782095345134,-122.16387083758447,29.1097,0.0000
2024-11-15T22:02:55.918Z,0.6610,0.0757,-0.2176,0.0120,-0.0884,-0.2534,36.6070,-15.4067,-121.7013,37.422782095345134,-122.16387083758447,29.1097,0.0000
2024-11-15T22:02:55.929Z,0.6483,0.2685,-1.1460,-0.1854,-0.1652,-0.2312,36.6621,-15.1941,-121.7169,37.422782095345134,-122.16387083758447,29.1097,0.0000
2024-11-15T22:02:55.939Z,0.2805,0.1338,-2.1002,-0.3406,-0.1883,-0.1769,36.5757,-14.9394,-121.8149,37.422782095345134,-122.16387083758447,29.1097,0.0000
2024-11-15T22:02:55.949Z,0.2805,0.1338,-2.1002,-0.4230,-0.1723,-0.1120,36.5757,-14.9394,-121.8149,37.422782095345134,-122.16387083758447,29.1097,0.0000
2024-11-15T22:02:55.958Z,0.0313,-0.0787,-2.0957,-0.4152,-0.1530,-0.0630,36.6224,-14.5736,-121.6332,37.422782095345134,-122.16387083758447,29.1097,0.0000
2024-11-15T22:02:55.969Z,-0.0894,-0.5515,-1.7605,-0.3381,-0.1453,-0.0384,36.4160,-14.4515,-121.4318,37.422782095345134,-122.16387083758447,29.1097,0.0000
2024-11-15T22:02:55.978Z,-0.0894,-0.5515,-1.7605,-0.2139,-0.1492,-0.0351,36.3491,-14.1862,-121.6583,37.422782095345134,-122.16387083758447,29.1097,0.0000
2024-11-15T22:02:55.988Z,-0.0429,-0.7301,-1.7462,-0.0719,-0.1506,-0.0564,36.3168,-14.0078,-121.5963,37.422782095345134,-122.16387083758447,29.1097,0.0000
2024-11-15T22:02:55.999Z,0.1396,-0.9599,-2.1377,0.0650,-0.1417,-0.0831,36.1937,-13.8896,-121.5230,37.422782095345134,-122.16387083758447,29.1097,0.0000
2024-11-15T22:02:56.008Z,0.1396,-0.9599,-2.1377,0.1728,-0.1068,-0.1164,36.1398,-13.7743,-120.9552,37.422782095345134,-122.16387083758447,29.1097,0.0000
2024-11-15T22:02:56.018Z,0.2741,-1.0023,-2.4670,0.2325,-0.0351,-0.1430,36.0529,-13.9545,-121.1024,37.422782095345134,-122.16387083758447,29.1097,0.0000
2024-11-15T22:02:56.028Z,0.4430,-0.9560,-3.1760,0.2213,0.1156,-0.1530,36.2374,-14.0946,-121.2339,37.422782095345134,-122.16387083758447,29.1097,0.0000
2024-11-15T22:02:56.038Z,0.4430,-0.9560,-3.1760,0.1543,0.3130,-0.1336,36.2535,-14.0052,-121.4391,37.422782095345134,-122.16387083758447,29.1097,0.0000
2024-11-15T22:02:56.049Z,0.4674,-1.0028,-3.2793,0.0922,0.4542,-0.1098,36.3323,-14.0418,-121.3926,37.422785314150794,-122.16389896428335,29.2438,0.7595
2024-11-15T22:02:56.059Z,0.5258,-0.8582,-3.0118,0.0493,0.4865,-0.1094,36.6226,-14.1674,-121.1243,37.422785314150794,-122.16389896428335,29.2438,0.7595
2024-11-15T22:02:56.068Z,0.5258,-0.8582,-3.0118,0.0292,0.4196,-0.1346,36.7700,-13.8679,-121.3044,37.422785314150794,-122.16389896428335,29.2438,0.7595
2024-11-15T22:02:56.078Z,0.7920,-0.4617,-2.8677,0.0048,0.3123,-0.1759,37.0744,-13.9594,-120.7472,37.422785314150794,-122.16389896428335,29.2438,0.7595
2024-11-15T22:02:56.088Z,1.0737,0.3008,-2.6827,-0.0201,0.2207,-0.2211,37.1697,-13.8336,-120.2670,37.422785314150794,-122.16389896428335,29.2438,0.7595
2024-11-15T22:02:56.099Z,1.0737,0.3008,-2.6827,0.0136,0.1683,-0.2476,37.3069,-13.8301,-120.1480,37.422785314150794,-122.16389896428335,29.2438,0.7595
2024-11-15T22:02:56.108Z,1.1493,0.4951,-2.3234,0.1322,0.1111,-0.2193,37.3433,-13.7454,-120.4355,37.422785314150794,-122.16389896428335,29.2438,0.7595
2024-11-15T22:02:56.118Z,0.3942,0.5049,-0.7712,0.2976,0.0306,-0.1438,37.4537,-13.9118,-119.9151,37.422785314150794,-122.16389896428335,29.2438,0.7595
2024-11-15T22:02:56.128Z,0.3942,0.5049,-0.7712,0.4023,-0.0221,-0.0166,37.4997,-13.8166,-119.9601,37.422785314150794,-122.16389896428335,29.2438,0.7595
2024-11-15T22:02:56.138Z,0.0266,0.6340,-0.3299,0.3979,-0.0253,0.1620,37.7680,-14.2055,-120.0443,37.422785314150794,-122.16389896428335,29.2438,0.7595
2024-11-15T22:02:56.149Z,-0.8101,0.4391,-0.3495,0.2951,0.0120,0.3445,37.3389,-14.2952,-119.7846,37.422785314150794,-122.16389896428335,29.2438,0.7595
2024-11-15T22:02:56.159Z,-0.8101,0.4391,-0.3495,0.1588,0.0801,0.4899,37.4932,-14.3436,-119.6472,37.422785314150794,-122.16389896428335,29.2438,0.7595
2024-11-15T22:02:56.168Z,-0.8862,0.2954,-0.3409,0.0398,0.1671,0.5703,37.3619,-14.7291,-119.7569,37.422785314150794,-122.16389896428335,29.2438,0.7595
2024-11-15T22:02:56.178Z,-0.4897,0.0322,0.6385,-0.0251,0.2334,0.5944,37.4435,-14.8164,-119.5201,37.422785314150794,-122.16389896428335,29.2438,0.7595
2024-11-15T22:02:56.188Z,-0.4897,0.0322,0.6385,-0.0294,0.2259,0.5609,37.5943,-15.0167,-119.5662,37.422785314150794,-122.16389896428335,29.2438,0.7595
2024-11-15T22:02:56.199Z,-0.3178,-0.1689,1.3464,0.0047,0.1259,0.4866,37.5069,-15.0822,-119.4717,37.422785314150794,-122.16389896428335,29.2438,0.7595
2024-11-15T22:02:56.209Z,-0.3252,-0.7247,2.2975,0.0411,-0.0377,0.3865,37.5076,-15.3000,-119.4753,37.422785314150794,-122.16389896428335,29.2438,0.7595
2024-11-15T22:02:56.218Z,-0.3252,-0.7247,2.2975,0.0284,-0.2006,0.2799,37.4246,-15.2595,-119.2594,37.422785314150794,-122.16389896428335,29.2438,0.7595
2024-11-15T22:02:56.228Z,-0.4920,-1.0399,2.4275,-0.0129,-0.3600,0.1834,37.0121,-15.3787,-119.3688,37.422785314150794,-122.16389896428335,29.2438,0.7595
2024-11-15T22:02:56.238Z,-0.9771,-1.3303,2.5721,-0.0489,-0.5422,0.1107,37.0121,-15.3787,-119.3688,37.422785314150794,-122.16389896428335,29.2438,0.7595
2024-11-15T22:02:56.249Z,-0.9771,-1.3303,2.5721,-0.0353,-0.7413,0.0579,36.4824,-15.2271,-119.8778,37.422785314150794,-122.16389896428335,29.2438,0.7595
2024-11-15T22:02:56.259Z,-1.1234,-1.2043,2.7478,0.0069,-0.9113,0.0095,36.1293,-15.3504,-120.3521,37.422785314150794,-122.16389896428335,29.2438,0.7595
2024-11-15T22:02:56.269Z,-0.4112,0.1108,3.0974,0.0326,-0.9855,0.0039,36.1293,-15.3504,-120.3521,37.422785314150794,-122.16389896428335,29.2438,0.7595
2024-11-15T22:02:56.278Z,-0.4112,0.1108,3.0974,-0.0119,-0.9221,0.0738,35.6278,-15.2829,-120.2024,37.422785314150794,-122.16389896428335,29.2438,0.7595
2024-11-15T22:02:56.288Z,-0.1300,0.7665,2.8446,-0.1488,-0.7257,0.2014,35.2514,-15.2232,-120.4917,37.422785314150794,-122.16389896428335,29.2438,0.7595
2024-11-15T22:02:56.301Z,-0.5408,0.0814,1.7845,-0.3631,-0.4104,0.3497,34.8887,-15.2458,-120.9178,37.422785314150794,-122.16389896428335,29.2438,0.7595
2024-11-15T22:02:56.308Z,-0.5408,0.0814,1.7845,-0.5527,-0.0590,0.4862,34.6361,-15.0459,-120.9038,37.422785314150794,-122.16389896428335,29.2438,0.7595
2024-11-15T22:02:56.318Z,-0.8685,-0.6506,1.5129,-0.5947,0.2054,0.5885,34.5906,-14.9913,-120.7027,37.422785314150794,-122.16389896428335,29.2438,0.7595
2024-11-15T22:02:56.328Z,-0.8322,-1.3751,2.3760,-0.4995,0.3475,0.6234,34.8011,-14.8025,-120.6227,37.422785314150794,-122.16389896428335,29.2438,0.7595
2024-11-15T22:02:56.338Z,-0.8322,-1.3751,2.3760,-0.3208,0.4056,0.5870,34.7978,-14.7092,-120.6034,37.422785314150794,-122.16389896428335,29.2438,0.7595
2024-11-15T22:02:56.349Z,-0.5851,-1.2860,2.7556,-0.1093,0.4050,0.5045,34.8997,-14.7719,-120.2552,37.422785314150794,-122.16389896428335,29.2438,0.7595
2024-11-15T22:02:56.359Z,0.1246,-0.8647,2.4359,0.0655,0.3483,0.3811,35.0226,-14.8022,-120.4016,37.422785314150794,-122.16389896428335,29.2438,0.7595
2024-11-15T22:02:56.368Z,0.1246,-0.8647,2.4359,0.1195,0.2755,0.2570,35.1866,-14.9149,-120.2625,37.422785314150794,-122.16389896428335,29.2438,0.7595
2024-11-15T22:02:56.378Z,0.5113,-0.3459,1.5493,0.0211,0.2373,0.1810,35.2186,-14.9531,-120.0764,37.422785314150794,-122.16389896428335,29.2438,0.7595
2024-11-15T22:02:56.389Z,0.4465,0.2540,-0.7439,-0.1926,0.2521,0.1750,35.3589,-14.8785,-119.8333,37.422785314150794,-122.16389896428335,29.2438,0.7595
2024-11-15T22:02:56.399Z,0.4465,0.2540,-0.7439,-0.4589,0.2874,0.2376,35.4794,-14.8710,-119.7426,37.422785314150794,-122.16389896428335,29.2438,0.7595
2024-11-15T22:02:56.408Z,0.0859,0.3265,-1.5393,-0.7051,0.3143,0.3474,35.5329,-14.5637,-119.8266,37.422785314150794,-122.16389896428335,29.2438,0.7595
2024-11-15T22:02:56.419Z,-0.5688,0.0668,-1.9962,-0.7051,0.3143,0.3474,35.7840,-14.4233,-119.4700,37.422785314150794,-122.16389896428335,29.2438,0.7595
2024-11-15T22:02:56.428Z,-0.5688,0.0668,-1.9962,-0.8915,0.3263,0.5773,35.7288,-14.0420,-119.6372,37.422785314150794,-122.16389896428335,29.2438,0.7595
2024-11-15T22:02:56.438Z,-0.6859,-0.1891,-1.6187,-0.7872,0.2610,0.6065,35.9015,-13.9306,-119.4111,37.422785314150794,-122.16389896428335,29.2438,0.7595
2024-11-15T22:02:56.451Z,-0.1369,-0.6439,-0.7590,-0.5802,0.1428,0.5425,36.0680,-13.8132,-119.3538,37.422785314150794,-122.16389896428335,29.2438,0.7595
2024-11-15T22:02:56.458Z,-0.1369,-0.6439,-0.7590,-0.3306,0.0303,0.3993,35.9383,-13.5771,-119.2802,37.422785314150794,-122.16389896428335,29.2438,0.7595
2024-11-15T22:02:56.468Z,0.3698,-0.7336,-0.6071,-0.0751,-0.0620,0.2156,35.8479,-13.4494,-119.3308,37.422785314150794,-122.16389896428335,29.2438,0.7595
2024-11-15T22:02:56.478Z,1.1807,-0.6697,-0.8919,0.1210,-0.1131,0.0349,35.7051,-13.5890,-119.3562,37.422785314150794,-122.16389896428335,29.2438,0.7595
2024-11-15T22:02:56.488Z,1.1807,-0.6697,-0.8919,0.2363,-0.1114,-0.1074,35.9655,-13.5323,-119.4064,37.422785314150794,-122.16389896428335,29.2438,0.7595
2024-11-15T22:02:56.500Z,1.2350,-0.6393,-1.3325,0.2772,-0.0866,-0.1789,35.7588,-13.6956,-119.3047,37.422785314150794,-122.16389896428335,29.2438,0.7595
2024-11-15T22:02:56.508Z,1.2350,-0.6393,-1.3325,0.2843,-0.0792,-0.1799,35.7917,-13.4755,-119.1609,37.422785314150794,-122.16389896428335,29.2438,0.7595
2024-11-15T22:02:56.519Z,0.7397,-0.5043,-2.2595,0.2641,-0.1065,-0.1244,35.5669,-13.6682,-119.3800,37.422785314150794,-122.16389896428335,29.2438,0.7595
2024-11-15T22:02:56.529Z,0.3469,-0.2857,-2.5561,0.2270,-0.1546,-0.0359,35.6626,-13.3900,-119.2045,37.422785314150794,-122.16389896428335,29.2438,0.7595
2024-11-15T22:02:56.539Z,-0.0733,0.1731,-2.8910,0.2270,-0.1546,-0.0359,35.5647,-13.6304,-119.5405,37.422785314150794,-122.16389896428335,29.2438,0.7595
2024-11-15T22:02:56.549Z,-0.0733,0.1731,-2.8910,0.1787,-0.2135,0.0628,35.4559,-13.6899,-119.3476,37.422785314150794,-122.16389896428335,29.2438,0.7595
2024-11-15T22:02:56.559Z,-0.1419,0.3178,-2.9415,0.0761,-0.2751,0.1667,35.1766,-13.7670,-119.5200,37.422785314150794,-122.16389896428335,29.2438,0.7595
2024-11-15T22:02:56.569Z,0.2775,0.4283,-2.6462,0.0432,-0.2391,0.1531,35.1766,-13.7670,-119.5200,37.422785314150794,-122.16389896428335,29.2438,0.7595
2024-11-15T22:02:56.579Z,0.2775,0.4283,-2.6462,0.0332,-0.1575,0.1052,35.1841,-13.5619,-119.4164,37.422785314150794,-122.16389896428335,29.2438,0.7595
2024-11-15T22:02:56.589Z,0.4675,0.3874,-2.2359,0.0623,-0.0617,0.0373,35.0836,-13.7807,-119.3338,37.422785314150794,-122.16389896428335,29.2438,0.7595
2024-11-15T22:02:56.602Z,0.7030,0.2600,-1.0213,0.1275,0.0092,-0.0401,35.2758,-13.7496,-119.2082,37.422785314150794,-122.16389896428335,29.2438,0.7595
2024-11-15T22:02:56.609Z,0.7030,0.2600,-1.0213,0.2057,0.0553,-0.1173,35.1068,-13.7388,-119.3613,37.422785314150794,-122.16389896428335,29.2438,0.7595
2024-11-15T22:02:56.619Z,0.6567,0.2331,-0.5070,0.2795,0.0738,-0.1671,35.0956,-13.8742,-119.1050,37.422785314150794,-122.16389896428335,29.2438,0.7595
2024-11-15T22:02:56.628Z,0.6567,0.2331,-0.5070,0.2795,0.0738,-0.1671,35.2483,-13.6892,-119.1231,37.422785314150794,-122.16389896428335,29.2438,0.7595
2024-11-15T22:02:56.639Z,0.3816,0.3705,0.1356,0.3709,0.0248,-0.2005,35.3670,-13.7056,-119.0224,37.422785314150794,-122.16389896428335,29.2438,0.7595
2024-11-15T22:02:56.650Z,0.2009,0.5225,0.3109,0.3737,-0.0244,-0.1957,35.4211,-13.8139,-119.0279,37.422785314150794,-122.16389896428335,29.2438,0.7595
2024-11-15T22:02:56.659Z,0.2009,0.5225,0.3109,0.3585,-0.0704,-0.1948,35.4029,-13.9101,-119.1087,37.422785314150794,-122.16389896428335,29.2438,0.7595
2024-11-15T22:02:56.668Z,-0.0141,0.8054,0.5760,0.3585,-0.0704,-0.1948,35.3967,-14.0043,-118.8445,37.422785314150794,-122.16389896428335,29.2438,0.7595
2024-11-15T22:02:56.678Z,0.0044,0.8932,0.8300,0.3387,-0.1271,-0.2175,35.3500,-13.7964,-118.9771,37.422785314150794,-122.16389896428335,29.2438,0.7595
2024-11-15T22:02:56.688Z,0.0044,0.8932,0.8300,0.3241,-0.1967,-0.2713,35.0780,-13.9939,-119.1648,37.422785314150794,-122.16389896428335,29.2438,0.7595
2024-11-15T22:02:56.700Z,0.3486,1.1913,1.3218,0.2984,-0.2540,-0.3567,35.2121,-13.9940,-119.0437,37.422785314150794,-122.16389896428335,29.2438,0.7595
2024-11-15T22:02:56.708Z,0.4835,1.2597,1.5721,0.2435,-0.2960,-0.4528,35.1520,-13.7664,-119.3176,37.422785314150794,-122.16389896428335,29.2438,0.7595
2024-11-15T22:02:56.718Z,0.4835,1.2597,1.5721,0.1730,-0.3242,-0.5277,34.8259,-13.5847,-119.3538,37.422785314150794,-122.16389896428335,29.2438,0.7595
2024-11-15T22:02:56.728Z,0.1699,1.0379,1.7927,0.0982,-0.3488,-0.5545,34.7524,-13.4347,-119.3500,37.422785314150794,-122.16389896428335,29.2438,0.7595
2024-11-15T22:02:56.738Z,-0.2480,0.8939,2.0018,0.0510,-0.3651,-0.5378,34.6485,-13.2635,-119.5042,37.422785314150794,-122.16389896428335,29.2438,0.7595
2024-11-15T22:02:56.751Z,-0.5139,1.4120,2.3782,0.0108,-0.3639,-0.4646,34.6161,-13.3248,-119.4710,37.422785314150794,-122.16389896428335,29.2438,0.7595
2024-11-15T22:02:56.758Z,-0.5139,1.4120,2.3782,-0.0457,-0.3156,-0.3439,34.4918,-13.0355,-119.6123,37.422785314150794,-122.16389896428335,29.2438,0.7595
2024-11-15T22:02:56.769Z,-0.5569,1.4633,2.3555,-0.1384,-0.2087,-0.1990,34.4255,-12.7794,-119.4035,37.422785314150794,-122.16389896428335,29.2438,0.7595
2024-11-15T22:02:56.778Z,-0.5569,1.4633,2.3555,-0.2451,-0.1018,-0.0671,34.3258,-12.5494,-119.4905,37.422785314150794,-122.16389896428335,29.2438,0.7595
2024-11-15T22:02:56.788Z,-0.7748,0.4343,2.3637,-0.2963,-0.0402,0.0319,34.3872,-12.3650,-119.3486,37.422785314150794,-122.16389896428335,29.2438,0.7595
2024-11-15T22:02:56.800Z,-0.6567,-0.0577,2.6694,-0.2464,-0.0464,0.0913,34.3399,-12.2065,-119.5767,37.422785314150794,-122.16389896428335,29.2438,0.7595
2024-11-15T22:02:56.808Z,-0.6567,-0.0577,2.6694,-0.1056,-0.1184,0.0886,34.2331,-11.9841,-119.6203,37.422785314150794,-122.16389896428335,29.2438,0.7595
2024-11-15T22:02:56.818Z,0.1095,-0.4966,3.0679,0.0742,-0.1879,0.0186,34.2155,-11.9829,-119.1523,37.422785314150794,-122.16389896428335,29.2438,0.7595
2024-11-15T22:02:56.828Z,0.4967,-0.5339,2.8391,0.2306,-0.2084,-0.0745,34.2549,-12.0703,-119.6718,37.422785314150794,-122.16389896428335,29.2438,0.7595
2024-11-15T22:02:56.838Z,0.4967,-0.5339,2.8391,0.3127,-0.1634,-0.1506,34.0684,-12.2378,-119.4101,37.422785314150794,-122.16389896428335,29.2438,0.7595
2024-11-15T22:02:56.850Z,0.6369,-0.4933,1.5581,0.3014,-0.0493,-0.1813,33.9972,-12.1100,-119.6351,37.422785314150794,-122.16389896428335,29.2438,0.7595
2024-11-15T22:02:56.858Z,0.4452,-0.5134,0.7641,0.2157,0.0581,-0.1689,34.1857,-12.0412,-119.5970,37.422785314150794,-122.16389896428335,29.2438,0.7595
2024-11-15T22:02:56.868Z,0.4452,-0.5134,0.7641,0.0985,0.1201,-0.1212,34.1088,-12.0539,-119.6586,37.422785314150794,-122.16389896428335,29.2438,0.7595
2024-11-15T22:02:56.878Z,0.1112,-0.2693,-0.4909,-0.0384,0.1320,-0.0445,34.2428,-11.7617,-119.6264,37.422785314150794,-122.16389896428335,29.2438,0.7595
2024-11-15T22:02:56.888Z,-0.0025,-0.1602,-0.9118,-0.1714,0.1015,0.0412,34.2652,-11.7228,-119.4158,37.422785314150794,-122.16389896428335,29.2438,0.7595
2024-11-15T22:02:56.902Z,0.0046,-0.2747,-1.4399,-0.2872,0.0456,0.1214,34.1946,-11.6542,-119.4844,37.422785314150794,-122.16389896428335,29.2438,0.7595
2024-11-15T22:02:56.909Z,0.0046,-0.2747,-1.4399,-0.3647,-0.0227,0.1684,34.0299,-11.4515,-119.5989,37.422785314150794,-122.16389896428335,29.2438,0.7595
2024-11-15T22:02:56.918Z,0.1694,-0.3115,-1.5705,-0.3965,-0.0926,0.1794,34.0299,-11.4515,-119.5989,37.422785314150794,-122.16389896428335,29.2438,0.7595
2024-11-15T22:02:56.928Z,0.1694,-0.3115,-1.5705,-0.3879,-0.1531,0.1594,34.3281,-11.1594,-119.4052,37.422785314150794,-122.16389896428335,29.2438,0.7595
2024-11-15T22:02:56.938Z,0.3967,-0.5079,-1.7939,-0.3426,-0.1911,0.1217,34.0714,-10.9091,-119.6003,37.422785314150794,-122.16389896428335,29.2438,0.7595
2024-11-15T22:02:56.949Z,0.3873,-0.5838,-1.9749,-0.2788,-0.1874,0.0857,33.9768,-10.9242,-119.7764,37.422785314150794,-122.16389896428335,29.2438,0.7595
2024-11-15T22:02:56.958Z,0.3873,-0.5838,-1.9749,-0.2184,-0.1317,0.0595,34.1574,-10.5493,-119.8712,37.422785314150794,-122.16389896428335,29.2438,0.7595
2024-11-15T22:02:56.968Z,0.2572,-0.6572,-2.4038,-0.1760,-0.0206,0.0626,34.0968,-10.7182,-119.6934,37.422785314150794,-122.16389896428335,29.2438,0.7595
2024-11-15T22:02:56.978Z,0.1723,-0.6959,-2.5736,-0.1511,0.1156,0.0899,34.1582,-10.4799,-120.0638,37.422785314150794,-122.16389896428335,29.2438,0.7595
2024-11-15T22:02:56.988Z,0.1723,-0.6959,-2.5736,-0.1211,0.2367,0.1315,34.1861,-10.3227,-119.8383,37.422785314150794,-122.16389896428335,29.2438,0.7595
2024-11-15T22:02:57.000Z,0.0844,-0.7143,-2.5534,-0.0631,0.3154,0.1848,34.3121,-10.1968,-119.4730,37.422785314150794,-122.16389896428335,29.2438,0.7595
2024-11-15T22:02:57.008Z,0.1345,-0.6997,-2.4016,0.0206,0.3357,0.2227,34.3372,-10.3313,-119.3060,37.422785314150794,-122.16389896428335,29.2438,0.7595
2024-11-15T22:02:57.018Z,0.1345,-0.6997,-2.4016,0.1250,0.2905,0.2332,34.3620,-10.4671,-119.6477,37.422785314150794,-122.16389896428335,29.2438,0.7595
2024-11-15T22:02:57.028Z,0.5519,-0.6261,-2.2131,0.2281,0.1942,0.2089,34.4477,-10.5206,-119.4345,37.422785314150794,-122.16389896428335,29.2438,0.7595
2024-11-15T22:02:57.038Z,0.8824,-0.5279,-2.2802,0.2904,0.0632,0.1432,34.4208,-10.5962,-119.2435,37.422785314150794,-122.16389896428335,29.2438,0.7595
2024-11-15T22:02:57.049Z,0.8824,-0.5279,-2.2802,0.2853,-0.0567,0.0492,34.5462,-10.7235,-119.4440,37.42279510394459,-122.16392496768194,29.1474,1.6990
2024-11-15T22:02:57.058Z,1.3386,-0.3436,-2.6781,0.2202,-0.1441,-0.0530,34.4153,-10.7248,-119.1781,37.42279510394459,-122.16392496768194,29.1474,1.6990
2024-11-15T22:02:57.068Z,1.3845,-0.1746,-2.7322,0.1069,-0.2236,-0.1474,34.3802,-10.7985,-119.5389,37.42279510394459,-122.16392496768194,29.1474,1.6990
2024-11-15T22:02:57.079Z,1.3845,-0.1746,-2.7322,-0.0449,-0.2888,-0.1940,34.4755,-10.5582,-119.5015,37.42279510394459,-122.16392496768194,29.1474,1.6990
2024-11-15T22:02:57.088Z,0.8348,0.1147,-2.3548,-0.1901,-0.3142,-0.1596,34.3859,-10.4198,-119.6393,37.42279510394459,-122.16392496768194,29.1474,1.6990
2024-11-15T22:02:57.100Z,0.2481,0.0324,-1.7413,-0.3023,-0.2813,-0.0744,34.2901,-10.1835,-119.7049,37.42279510394459,-122.16392496768194,29.1474,1.6990
2024-11-15T22:02:57.108Z,0.2481,0.0324,-1.7413,-0.3427,-0.1995,0.0311,34.1293,-9.9442,-119.7787,37.42279510394459,-122.16392496768194,29.1474,1.6990
2024-11-15T22:02:57.118Z,-0.2559,-0.1706,0.2488,-0.2773,-0.0812,0.1207,33.9588,-9.8890,-119.8830,37.42279510394459,-122.16392496768194,29.1474,1.6990
2024-11-15T22:02:57.128Z,-0.2410,-0.3385,1.5291,-0.0822,0.0243,0.1803,34.0146,-9.8709,-120.1403,37.42279510394459,-122.16392496768194,29.1474,1.6990
2024-11-15T22:02:57.138Z,-0.2410,-0.3385,1.5291,0.2036,0.0772,0.1931,34.1989,-10.0820,-119.9468,37.42279510394459,-122.16392496768194,29.1474,1.6990
2024-11-15T22:02:57.149Z,0.1112,-0.3783,3.5106,0.4934,0.1183,0.1481,34.3304,-10.2442,-120.0475,37.42279510394459,-122.16392496768194,29.1474,1.6990
2024-11-15T22:02:57.158Z,0.2038,-0.5266,3.7819,0.6872,0.1627,0.0793,34.3836,-10.5547,-120.1017,37.42279510394459,-122.16392496768194,29.1474,1.6990
2024-11-15T22:02:57.168Z,0.2038,-0.5266,3.7819,0.7148,0.2329,0.0186,34.5350,-10.7098,-119.8866,37.42279510394459,-122.16392496768194,29.1474,1.6990
2024-11-15T22:02:57.178Z,-0.1985,-0.9202,2.7770,0.5907,0.3116,-0.0097,34.6801,-10.9708,-119.6974,37.42279510394459,-122.16392496768194,29.1474,1.6990
2024-11-15T22:02:57.188Z,-0.5914,-1.0233,2.2670,0.3871,0.3047,0.0049,34.7013,-10.9010,-119.8366,37.42279510394459,-122.16392496768194,29.1474,1.6990
2024-11-15T22:02:57.200Z,-0.5914,-1.0233,2.2670,0.1822,0.1750,0.0450,34.7035,-11.2334,-119.5576,37.42279510394459,-122.16392496768194,29.1474,1.6990
2024-11-15T22:02:57.208Z,-1.4055,-1.0518,1.8808,0.0362,-0.0630,0.0807,34.6123,-10.8902,-119.7945,37.42279510394459,-122.16392496768194,29.1474,1.6990
2024-11-15T22:02:57.218Z,-1.3897,-0.8562,2.0541,-0.0266,-0.3594,0.0722,34.6123,-10.8902,-119.7945,37.42279510394459,-122.16392496768194,29.1474,1.6990
2024-11-15T22:02:57.229Z,-1.3897,-0.8562,2.0541,-0.0201,-0.6120,0.0427,33.9817,-11.0158,-120.2162,37.42279510394459,-122.16392496768194,29.1474,1.6990
2024-11-15T22:02:57.238Z,-0.5034,0.2415,2.3599,-0.0222,-0.7234,0.0467,33.9817,-11.0158,-120.2162,37.42279510394459,-122.16392496768194,29.1474,1.6990
2024-11-15T22:02:57.249Z,-0.3775,0.4142,2.0733,-0.0787,-0.6650,0.1025,33.7743,-11.0403,-120.3408,37.42279510394459,-122.16392496768194,29.1474,1.6990
2024-11-15T22:02:57.258Z,-0.3775,0.4142,2.0733,-0.2127,-0.4998,0.1833,33.4545,-10.8591,-120.6576,37.42279510394459,-122.16392496768194,29.1474,1.6990
2024-11-15T22:02:57.268Z,-0.5964,-0.1734,1.0867,-0.4009,-0.2455,0.2766,33.2396,-10.7717,-120.9061,37.42279510394459,-122.16392496768194,29.1474,1.6990
2024-11-15T22:02:57.278Z,-0.7999,-0.6131,0.8906,-0.5503,0.0200,0.3723,33.3303,-10.5775,-120.8249,37.42279510394459,-122.16392496768194,29.1474,1.6990
2024-11-15T22:02:57.288Z,-0.7999,-0.6131,0.8906,-0.5847,0.2187,0.4568,33.3340,-10.3127,-120.7363,37.42279510394459,-122.16392496768194,29.1474,1.6990
2024-11-15T22:02:57.299Z,-1.0382,-1.1893,1.7433,-0.5133,0.3214,0.4882,33.5155,-10.1880,-120.7431,37.42279510394459,-122.16392496768194,29.1474,1.6990
2024-11-15T22:02:57.308Z,-0.8102,-1.0577,1.9707,-0.4017,0.3652,0.4673,33.5579,-10.1272,-120.6514,37.42279510394459,-122.16392496768194,29.1474,1.6990
2024-11-15T22:02:57.318Z,-0.8102,-1.0577,1.9707,-0.2704,0.3797,0.4116,33.7595,-10.1131,-120.5320,37.42279510394459,-122.16392496768194,29.1474,1.6990
2024-11-15T22:02:57.328Z,-0.2279,-0.7420,1.5758,-0.1784,0.3913,0.3221,34.0624,-10.2623,-120.9542,37.42279510394459,-122.16392496768194,29.1474,1.6990
2024-11-15T22:02:57.338Z,0.0645,-0.4428,0.9943,-0.1727,0.4262,0.2359,34.1664,-9.9830,-120.7279,37.42279510394459,-122.16392496768194,29.1474,1.6990
2024-11-15T22:02:57.349Z,0.0645,-0.4428,0.9943,-0.2650,0.4821,0.1849,34.3956,-10.0804,-120.4822,37.42279510394459,-122.16392496768194,29.1474,1.6990
2024-11-15T22:02:57.358Z,0.0024,-0.0572,-0.4645,-0.4292,0.5499,0.1903,34.6151,-9.8435,-120.7061,37.42279510394459,-122.16392496768194,29.1474,1.6990
2024-11-15T22:02:57.368Z,-0.2653,-0.0123,-0.9301,-0.6048,0.5979,0.2556,34.9611,-9.6486,-120.7101,37.42279510394459,-122.16392496768194,29.1474,1.6990
2024-11-15T22:02:57.378Z,-0.2653,-0.0123,-0.9301,-0.7442,0.6079,0.3430,35.3450,-9.3308,-120.5472,37.42279510394459,-122.16392496768194,29.1474,1.6990
2024-11-15T22:02:57.388Z,-0.6909,-0.2285,-0.9998,-0.8109,0.5741,0.4180,35.3799,-8.9093,-120.5062,37.42279510394459,-122.16392496768194,29.1474,1.6990
2024-11-15T22:02:57.400Z,-0.5699,-0.3438,-0.7769,-0.7902,0.4964,0.4584,35.6658,-8.8469,-120.4676,37.42279510394459,-122.16392496768194,29.1474,1.6990
2024-11-15T22:02:57.408Z,-0.5699,-0.3438,-0.7769,-0.6771,0.3559,0.4374,35.9314,-8.6306,-120.4028,37.42279510394459,-122.16392496768194,29.1474,1.6990
2024-11-15T22:02:57.418Z,0.0143,-0.5972,-0.3788,-0.4936,0.1775,0.3574,35.9945,-8.4592,-120.3983,37.42279510394459,-122.16392496768194,29.1474,1.6990
2024-11-15T22:02:57.428Z,0.3847,-0.5701,-0.4054,-0.2770,-0.0040,0.2502,35.8715,-8.4990,-120.2941,37.42279510394459,-122.16392496768194,29.1474,1.6990
2024-11-15T22:02:57.438Z,0.3847,-0.5701,-0.4054,-0.0783,-0.1577,0.1395,35.8768,-8.4045,-120.1887,37.42279510394459,-122.16392496768194,29.1474,1.6990
2024-11-15T22:02:57.449Z,0.7163,-0.4992,-1.0705,0.0658,-0.2608,0.0694,35.7216,-8.4328,-120.5299,37.42279510394459,-122.16392496768194,29.1474,1.6990
2024-11-15T22:02:57.458Z,0.6044,-0.3973,-1.5935,0.1426,-0.3112,0.0444,35.5812,-8.5181,-120.8444,37.42279510394459,-122.16392496768194,29.1474,1.6990
2024-11-15T22:02:57.469Z,0.6044,-0.3973,-1.5935,0.1652,-0.3301,0.0641,35.4913,-8.6333,-120.9127,37.42279510394459,-122.16392496768194,29.1474,1.6990
2024-11-15T22:02:57.478Z,0.2983,0.0069,-2.4719,0.1384,-0.3095,0.1033,35.1844,-8.6936,-121.2516,37.42279510394459,-122.16392496768194,29.1474,1.6990
2024-11-15T22:02:57.489Z,0.3166,0.2188,-2.6996,0.0909,-0.2863,0.1412,35.1555,-8.5589,-121.2311,37.42279510394459,-122.16392496768194,29.1474,1.6990
2024-11-15T22:02:57.500Z,0.3166,0.2188,-2.6996,0.0514,-0.2891,0.1607,35.0560,-8.6676,-121.0261,37.42279510394459,-122.16392496768194,29.1474,1.6990
2024-11-15T22:02:57.508Z,0.6070,0.5433,-2.8373,0.0372,-0.3142,0.1621,34.9910,-8.9084,-121.4482,37.42279510394459,-122.16392496768194,29.1474,1.6990
2024-11-15T22:02:57.519Z,0.7716,0.5694,-2.6574,0.0495,-0.3520,0.1382,34.9910,-8.9084,-121.4482,37.42279510394459,-122.16392496768194,29.1474,1.6990
2024-11-15T22:02:57.529Z,0.7716,0.5694,-2.6574,0.0730,-0.3662,0.0729,34.5404,-8.9100,-121.7227,37.42279510394459,-122.16392496768194,29.1474,1.6990
2024-11-15T22:02:57.539Z,1.2122,0.6826,-2.2840,0.0989,-0.3400,-0.0204,34.4965,-8.8818,-121.6090,37.42279510394459,-122.16392496768194,29.1474,1.6990
2024-11-15T22:02:57.550Z,1.2875,0.7236,-2.1567,0.1046,-0.2870,-0.1523,34.4965,-8.8818,-121.6090,37.42279510394459,-122.16392496768194,29.1474,1.6990
2024-11-15T22:02:57.558Z,1.2875,0.7236,-2.1567,0.0820,-0.2403,-0.3029,34.5194,-9.1071,-121.7847,37.42279510394459,-122.16392496768194,29.1474,1.6990
2024-11-15T22:02:57.568Z,0.9036,1.0850,-1.9991,0.0375,-0.2146,-0.4170,34.1740,-8.8003,-121.9918,37.42279510394459,-122.16392496768194,29.1474,1.6990
2024-11-15T22:02:57.578Z,0.1244,1.1223,-1.8929,-0.0453,-0.2190,-0.4461,34.1738,-8.5338,-121.9024,37.42279510394459,-122.16392496768194,29.1474,1.6990
2024-11-15T22:02:57.588Z,0.1244,1.1223,-1.8929,-0.1611,-0.2558,-0.3728,33.8731,-8.5238,-122.0731,37.42279510394459,-122.16392496768194,29.1474,1.6990
2024-11-15T22:02:57.600Z,-1.6157,1.0314,-1.5894,-0.2735,-0.2930,-0.2287,33.9579,-8.3914,-122.4898,37.42279510394459,-122.16392496768194,29.1474,1.6990
2024-11-15T22:02:57.609Z,-2.0903,0.9126,-0.9869,-0.3141,-0.2947,-0.0584,33.7822,-8.1733,-122.6057,37.42279510394459,-122.16392496768194,29.1474,1.6990
2024-11-15T22:02:57.618Z,-2.0903,0.9126,-0.9869,-0.2207,-0.2442,0.0783,33.6637,-7.9272,-122.2444,37.42279510394459,-122.16392496768194,29.1474,1.6990
2024-11-15T22:02:57.628Z,-1.4782,0.7874,1.4072,-0.0028,-0.1291,0.1494,33.7086,-7.9537,-122.4019,37.42279510394459,-122.16392496768194,29.1474,1.6990
2024-11-15T22:02:57.638Z,-0.7598,0.6537,2.5814,0.2766,0.0221,0.1408,33.4656,-8.0870,-122.8313,37.42279510394459,-122.16392496768194,29.1474,1.6990
2024-11-15T22:02:57.650Z,-0.7598,0.6537,2.5814,0.4963,0.2502,0.0663,33.5829,-8.2074,-122.7808,37.42279510394459,-122.16392496768194,29.1474,1.6990
2024-11-15T22:02:57.658Z,0.5267,0.5471,3.3284,0.5897,0.5216,-0.0339,33.9794,-8.5139,-122.3983,37.42279510394459,-122.16392496768194,29.1474,1.6990
2024-11-15T22:02:57.669Z,0.6418,0.3417,3.1394,0.5585,0.7522,-0.0998,34.0979,-8.7487,-122.8290,37.42279510394459,-122.16392496768194,29.1474,1.6990
2024-11-15T22:02:57.678Z,0.6418,0.3417,3.1394,0.4473,0.8854,-0.1168,34.5663,-8.9676,-122.1747,37.42279510394459,-122.16392496768194,29.1474,1.6990
2024-11-15T22:02:57.688Z,-0.3170,-0.0596,2.9304,0.2934,0.8363,-0.1222,35.2406,-9.2434,-121.9850,37.42279510394459,-122.16392496768194,29.1474,1.6990
2024-11-15T22:02:57.700Z,-0.4485,-0.0366,2.8290,0.1564,0.5778,-0.1558,35.3231,-9.2848,-121.8799,37.42279510394459,-122.16392496768194,29.1474,1.6990
2024-11-15T22:02:57.709Z,-0.4485,-0.0366,2.8290,0.0449,0.1766,-0.2187,35.4458,-9.3180,-121.7981,37.42279510394459,-122.16392496768194,29.1474,1.6990
2024-11-15T22:02:57.718Z,0.0054,0.7197,2.8794,-0.0597,-0.2191,-0.2569,35.4458,-9.3180,-121.7981,37.42279510394459,-122.16392496768194,29.1474,1.6990
2024-11-15T22:02:57.729Z,0.1004,0.8842,2.9018,-0.1869,-0.4384,-0.2541,35.1892,-8.8777,-122.1735,37.42279510394459,-122.16392496768194,29.1474,1.6990
2024-11-15T22:02:57.738Z,0.1004,0.8842,2.9018,-0.3090,-0.4809,-0.2267,34.9030,-8.6096,-122.0398,37.42279510394459,-122.16392496768194,29.1474,1.6990
2024-11-15T22:02:57.749Z,-0.0819,-0.0942,3.0744,-0.3463,-0.4256,-0.1896,34.8757,-8.4641,-122.2857,37.42279510394459,-122.16392496768194,29.1474,1.6990
2024-11-15T22:02:57.759Z,-0.2154,-0.6873,3.4811,-0.2522,-0.3360,-0.1512,34.6267,-8.2557,-122.5150,37.42279510394459,-122.16392496768194,29.1474,1.6990
2024-11-15T22:02:57.768Z,-0.2154,-0.6873,3.4811,-0.0421,-0.2681,-0.1291,34.6696,-8.1277,-122.5081,37.42279510394459,-122.16392496768194,29.1474,1.6990
2024-11-15T22:02:57.778Z,0.0392,-1.1664,3.8174,0.2095,-0.2335,-0.1477,34.3701,-8.3263,-122.7972,37.42279510394459,-122.16392496768194,29.1474,1.6990
2024-11-15T22:02:57.788Z,0.0392,-1.1664,3.8174,0.4052,-0.1811,-0.1700,34.4075,-8.3189,-122.6428,37.42279510394459,-122.16392496768194,29.1474,1.6990
2024-11-15T22:02:57.800Z,0.3553,-1.0065,3.2328,0.4962,-0.1009,-0.1590,34.2943,-8.4006,-122.7456,37.42279510394459,-122.16392496768194,29.1474,1.6990
2024-11-15T22:02:57.808Z,0.4043,-0.7834,1.1594,0.4714,-0.0207,-0.1271,34.4826,-8.9021,-122.8197,37.42279510394459,-122.16392496768194,29.1474,1.6990
2024-11-15T22:02:57.818Z,0.4043,-0.7834,1.1594,0.3582,0.0355,-0.0752,34.4974,-8.7853,-123.0650,37.42279510394459,-122.16392496768194,29.1474,1.6990
2024-11-15T22:02:57.828Z,0.3160,-0.7447,0.0784,0.1875,0.0497,-0.0096,34.3081,-9.0141,-123.0085,37.42279510394459,-122.16392496768194,29.1474,1.6990
2024-11-15T22:02:57.839Z,0.2435,-0.5363,-1.4348,0.0087,0.0235,0.0658,34.4836,-8.7387,-122.9107,37.42279510394459,-122.16392496768194,29.1474,1.6990
2024-11-15T22:02:57.851Z,0.3812,-0.4030,-1.8223,-0.1558,-0.0173,0.1310,34.2160,-8.8952,-123.2543,37.42279510394459,-122.16392496768194,29.1474,1.6990
2024-11-15T22:02:57.859Z,0.3812,-0.4030,-1.8223,-0.2854,-0.0418,0.1804,34.1895,-8.9241,-123.0095,37.42279510394459,-122.16392496768194,29.1474,1.6990
2024-11-15T22:02:57.868Z,0.6847,-0.3326,-1.9651,-0.3709,-0.0428,0.2017,34.1895,-8.9241,-123.0095,37.42279510394459,-122.16392496768194,29.1474,1.6990
2024-11-15T22:02:57.878Z,0.6847,-0.3326,-1.9651,-0.4075,-0.0374,0.1899,34.2421,-8.8049,-123.2392,37.42279510394459,-122.16392496768194,29.1474,1.6990
2024-11-15T22:02:57.888Z,0.8360,-0.4091,-1.8931,-0.3897,-0.0186,0.1490,34.1260,-8.5543,-123.4719,37.42279510394459,-122.16392496768194,29.1474,1.6990
2024-11-15T22:02:57.900Z,0.9290,-0.6936,-1.7455,-0.3190,0.0063,0.0938,34.1596,-8.3968,-123.4148,37.42279510394459,-122.16392496768194,29.1474,1.6990
2024-11-15T22:02:57.908Z,0.9290,-0.6936,-1.7455,-0.2039,0.0388,0.0282,34.2873,-8.3957,-123.2420,37.42279510394459,-122.16392496768194,29.1474,1.6990
2024-11-15T22:02:57.918Z,0.9070,-0.8061,-1.7044,-0.0676,0.0666,-0.0368,34.1160,-8.0855,-123.2530,37.42279510394459,-122.16392496768194,29.1474,1.6990
2024-11-15T22:02:57.928Z,0.7679,-0.9395,-1.9264,0.0607,0.0942,-0.0883,34.2550,-8.2987,-123.3168,37.42279510394459,-122.16392496768194,29.1474,1.6990
2024-11-15T22:02:57.938Z,0.7679,-0.9395,-1.9264,0.1677,0.1036,-0.1216,34.2383,-8.0711,-123.3430,37.42279510394459,-122.16392496768194,29.1474,1.6990
2024-11-15T22:02:57.950Z,0.6548,-0.9373,-2.1997,0.2405,0.0902,-0.1353,34.2365,-8.1562,-123.1132,37.42279510394459,-122.16392496768194,29.1474,1.6990
2024-11-15T22:02:57.958Z,0.5019,-0.6733,-2.8305,0.2763,0.0747,-0.1239,34.4786,-8.1997,-123.2515,37.42279510394459,-122.16392496768194,29.1474,1.6990
2024-11-15T22:02:57.968Z,0.5019,-0.6733,-2.8305,0.2836,0.0459,-0.1065,34.3111,-8.3630,-123.1454,37.42279510394459,-122.16392496768194,29.1474,1.6990
2024-11-15T22:02:57.978Z,0.4550,-0.5412,-3.0414,0.2657,0.0130,-0.0965,34.4549,-8.4486,-123.1845,37.42279510394459,-122.16392496768194,29.1474,1.6990
2024-11-15T22:02:57.988Z,0.6674,-0.1520,-3.2574,0.2362,-0.0353,-0.0956,34.5042,-8.6588,-123.3625,37.42279510394459,-122.16392496768194,29.1474,1.6990
2024-11-15T22:02:58.001Z,0.8097,-0.0058,-3.2031,0.2074,-0.0804,-0.1072,34.2561,-8.4660,-123.3936,37.42279510394459,-122.16392496768194,29.1474,1.6990
2024-11-15T22:02:58.008Z,0.8097,-0.0058,-3.2031,0.1768,-0.0852,-0.1276,34.3911,-8.7925,-123.4221,37.42279510394459,-122.16392496768194,29.1474,1.6990
2024-11-15T22:02:58.018Z,0.9462,0.1728,-2.6523,0.1656,-0.0439,-0.1488,34.4962,-8.8099,-123.5457,37.42279510394459,-122.16392496768194,29.1474,1.6990
2024-11-15T22:02:58.028Z,0.9462,0.1728,-2.6523,0.1674,0.0163,-0.1472,34.4244,-9.0599,-123.3695,37.42279510394459,-122.16392496768194,29.1474,1.6990
2024-11-15T22:02:58.038Z,0.8551,0.2102,-2.1485,0.1666,0.0779,-0.1226,34.3707,-8.9705,-123.5624,37.42279510394459,-122.16392496768194,29.1474,1.6990
2024-11-15T22:02:58.050Z,0.4660,0.3243,-1.2840,0.1437,0.1293,-0.0814,34.4020,-8.9601,-123.5001,37.42279665359265,-122.16394038470577,29.1411,1.5806
2024-11-15T22:02:58.058Z,0.4660,0.3243,-1.2840,0.1174,0.1477,-0.0327,34.5959,-9.0081,-123.7258,37.42279665359265,-122.16394038470577,29.1411,1.5806
2024-11-15T22:02:58.068Z,0.2833,0.3716,-0.8982,0.1376,0.1170,0.0060,34.5140,-9.1142,-123.5647,37.42279665359265,-122.16394038470577,29.1411,1.5806
2024-11-15T22:02:58.078Z,0.1423,0.2172,0.3155,0.2316,0.0834,0.0154,34.8320,-9.2908,-123.8105,37.42279665359265,-122.16394038470577,29.1411,1.5806
2024-11-15T22:02:58.088Z,0.1423,0.2172,0.3155,0.4272,0.0697,0.0027,34.7697,-9.6462,-123.7515,37.42279665359265,-122.16394038470577,29.1411,1.5806
2024-11-15T22:02:58.100Z,0.2594,0.0442,1.3459,0.6818,0.0584,-0.0356,34.8154,-9.9854,-123.5886,37.42279665359265,-122.16394038470577,29.1411,1.5806
2024-11-15T22:02:58.108Z,0.5362,-0.2377,2.9831,0.9228,0.0487,-0.0923,34.8118,-10.0986,-123.6784,37.42279665359265,-122.16394038470577,29.1411,1.5806
2024-11-15T22:02:58.118Z,0.5362,-0.2377,2.9831,1.0676,0.0778,-0.1404,34.9830,-10.7168,-123.5144,37.42279665359265,-122.16394038470577,29.1411,1.5806
2024-11-15T22:02:58.128Z,0.4621,-0.4135,3.0629,1.0795,0.1132,-0.1516,35.1313,-11.4161,-123.4556,37.42279665359265,-122.16394038470577,29.1411,1.5806
2024-11-15T22:02:58.138Z,-0.2321,-0.5540,2.1349,0.9777,0.1052,-0.1208,34.9792,-11.7209,-123.3333,37.42279665359265,-122.16394038470577,29.1411,1.5806
2024-11-15T22:02:58.149Z,-0.2321,-0.5540,2.1349,0.7939,0.0569,-0.0633,34.8382,-11.9705,-123.2129,37.42279665359265,-122.16394038470577,29.1411,1.5806
2024-11-15T22:02:58.158Z,-0.5727,-0.4052,1.5892,0.5840,-0.0303,0.0099,34.7968,-12.3624,-123.3869,37.42279665359265,-122.16394038470577,29.1411,1.5806
2024-11-15T22:02:58.168Z,-1.0262,-0.1164,1.2588,0.4053,-0.1446,0.0725,34.7968,-12.3624,-123.3869,37.42279665359265,-122.16394038470577,29.1411,1.5806
2024-11-15T22:02:58.179Z,-1.0262,-0.1164,1.2588,0.3087,-0.2785,0.0974,34.4986,-12.6347,-123.5519,37.42279665359265,-122.16394038470577,29.1411,1.5806
2024-11-15T22:02:58.188Z,-0.9576,-0.0764,1.5765,0.3035,-0.3959,0.0838,34.4986,-12.6347,-123.5519,37.42279665359265,-122.16394038470577,29.1411,1.5806
2024-11-15T22:02:58.200Z,-0.0230,0.5596,2.5509,0.3022,-0.4130,0.0776,34.2459,-12.7622,-123.4532,37.42279665359265,-122.16394038470577,29.1411,1.5806
2024-11-15T22:02:58.208Z,0.2205,0.7618,2.5239,0.2124,-0.3287,0.1167,34.0800,-13.1277,-123.9772,37.42279665359265,-122.16394038470577,29.1411,1.5806
2024-11-15T22:02:58.218Z,0.2205,0.7618,2.5239,0.0228,-0.1479,0.1907,33.8850,-13.1553,-123.8693,37.42279665359265,-122.16394038470577,29.1411,1.5806
2024-11-15T22:02:58.228Z,-0.5280,-0.5193,1.7620,-0.1963,0.0774,0.2882,33.7752,-13.4161,-124.2723,37.42279665359265,-122.16394038470577,29.1411,1.5806
2024-11-15T22:02:58.238Z,-0.9985,-1.2220,1.8881,-0.3208,0.2460,0.3845,33.8678,-13.1157,-123.6581,37.42279665359265,-122.16394038470577,29.1411,1.5806
2024-11-15T22:02:58.249Z,-0.9985,-1.2220,1.8881,-0.2986,0.2859,0.4322,34.0941,-13.1646,-123.9203,37.42279665359265,-122.16394038470577,29.1411,1.5806
2024-11-15T22:02:58.258Z,-1.0943,-1.7021,3.1888,-0.1600,0.2639,0.4128,34.0691,-13.2935,-124.2570,37.42279665359265,-122.16394038470577,29.1411,1.5806
2024-11-15T22:02:58.268Z,-0.8767,-1.5987,3.5294,0.0528,0.1918,0.3505,34.1145,-13.3551,-123.6474,37.42279665359265,-122.16394038470577,29.1411,1.5806
2024-11-15T22:02:58.278Z,-0.8767,-1.5987,3.5294,0.2586,0.0701,0.2517,34.1711,-13.4283,-123.8178,37.42279665359265,-122.16394038470577,29.1411,1.5806
2024-11-15T22:02:58.288Z,-0.2677,-0.8921,2.6416,0.3552,-0.0174,0.1522,34.0643,-13.8293,-123.8804,37.42279665359265,-122.16394038470577,29.1411,1.5806
2024-11-15T22:02:58.299Z,-0.2408,-0.6122,1.5656,0.2848,-0.0592,0.0921,33.8676,-14.2250,-124.2006,37.42279665359265,-122.16394038470577,29.1411,1.5806
2024-11-15T22:02:58.308Z,-0.2408,-0.6122,1.5656,0.0915,-0.0581,0.0960,34.0891,-14.3832,-123.7624,37.42279665359265,-122.16394038470577,29.1411,1.5806
2024-11-15T22:02:58.318Z,-0.7327,-0.3925,-0.5916,-0.1653,-0.0233,0.1525,33.9497,-14.2809,-124.2198,37.42279665359265,-122.16394038470577,29.1411,1.5806
2024-11-15T22:02:58.328Z,-0.9532,-0.2824,-1.1383,-0.4166,0.0256,0.2444,34.0276,-14.2413,-123.8280,37.42279665359265,-122.16394038470577,29.1411,1.5806
2024-11-15T22:02:58.338Z,-0.9532,-0.2824,-1.1383,-0.6230,0.0729,0.3458,34.0318,-14.1260,-124.0767,37.42279665359265,-122.16394038470577,29.1411,1.5806
2024-11-15T22:02:58.350Z,-1.1642,-0.5261,-1.2789,-0.7440,0.0952,0.4236,33.8493,-13.6578,-123.9785,37.42279665359265,-122.16394038470577,29.1411,1.5806
2024-11-15T22:02:58.358Z,-0.9873,-0.6367,-1.0895,-0.7677,0.0762,0.4527,33.9332,-13.3534,-123.9852,37.42279665359265,-122.16394038470577,29.1411,1.5806
2024-11-15T22:02:58.368Z,-0.9873,-0.6367,-1.0895,-0.6827,0.0194,0.4192,34.1326,-12.8270,-124.1023,37.42279665359265,-122.16394038470577,29.1411,1.5806
2024-11-15T22:02:58.378Z,-0.2977,-0.8767,-0.6534,-0.5169,-0.0732,0.3446,33.8833,-13.0699,-124.2668,37.42279665359265,-122.16394038470577,29.1411,1.5806
2024-11-15T22:02:58.388Z,0.0166,-0.8909,-0.6860,-0.3083,-0.1715,0.2362,33.7673,-12.9502,-124.1870,37.42279665359265,-122.16394038470577,29.1411,1.5806
2024-11-15T22:02:58.400Z,0.0166,-0.8909,-0.6860,-0.1085,-0.2417,0.1142,33.6205,-12.9371,-124.2329,37.42279665359265,-122.16394038470577,29.1411,1.5806
2024-11-15T22:02:58.408Z,0.6016,-0.6545,-1.2882,0.0209,-0.2540,0.0097,33.4104,-12.9489,-124.2670,37.42279665359265,-122.16394038470577,29.1411,1.5806
2024-11-15T22:02:58.419Z,0.6074,-0.5728,-1.8191,0.0696,-0.2050,-0.0559,33.3075,-12.8023,-124.5961,37.42279665359265,-122.16394038470577,29.1411,1.5806
2024-11-15T22:02:58.428Z,0.6074,-0.5728,-1.8191,0.0678,-0.1294,-0.0890,33.1177,-12.7479,-124.5208,37.42279665359265,-122.16394038470577,29.1411,1.5806
2024-11-15T22:02:58.438Z,0.5714,-0.3526,-2.6260,0.0548,-0.0552,-0.0992,33.2365,-12.8758,-124.5842,37.42279665359265,-122.16394038470577,29.1411,1.5806
2024-11-15T22:02:58.449Z,0.5163,-0.1083,-2.6555,0.0689,-0.0134,-0.0804,33.0670,-12.8463,-124.7751,37.42279665359265,-122.16394038470577,29.1411,1.5806
2024-11-15T22:02:58.458Z,0.5163,-0.1083,-2.6555,0.1057,-0.0044,-0.0552,33.3918,-13.1556,-124.8051,37.42279665359265,-122.16394038470577,29.1411,1.5806
2024-11-15T22:02:58.468Z,0.3978,0.1916,-2.4597,0.1535,-0.0274,-0.0396,33.1619,-12.8533,-124.7018,37.42279665359265,-122.16394038470577,29.1411,1.5806
2024-11-15T22:02:58.479Z,0.4365,0.3011,-2.4660,0.2043,-0.0891,-0.0439,32.9366,-13.0796,-124.7943,37.42279665359265,-122.16394038470577,29.1411,1.5806
2024-11-15T22:02:58.489Z,0.4365,0.3011,-2.4660,0.2513,-0.1637,-0.0775,32.9482,-13.1172,-124.8103,37.42279665359265,-122.16394038470577,29.1411,1.5806
2024-11-15T22:02:58.501Z,0.6175,0.3708,-2.4613,0.2939,-0.2236,-0.1462,32.9873,-13.4145,-124.7433,37.42279665359265,-122.16394038470577,29.1411,1.5806
2024-11-15T22:02:58.508Z,0.8058,0.3806,-2.4512,0.3171,-0.2612,-0.2323,32.9873,-13.4145,-124.7433,37.42279665359265,-122.16394038470577,29.1411,1.5806
2024-11-15T22:02:58.518Z,0.8058,0.3806,-2.4512,0.3255,-0.2636,-0.2972,32.8241,-13.5253,-125.2563,37.42279665359265,-122.16394038470577,29.1411,1.5806
2024-11-15T22:02:58.528Z,0.7308,0.5027,-2.4632,0.3051,-0.2340,-0.3270,32.5418,-13.5315,-125.4474,37.42279665359265,-122.16394038470577,29.1411,1.5806
2024-11-15T22:02:58.539Z,0.5319,0.5696,-2.4328,0.2729,-0.1959,-0.3277,32.4686,-13.6283,-125.1685,37.42279665359265,-122.16394038470577,29.1411,1.5806
2024-11-15T22:02:58.550Z,0.5319,0.5696,-2.4328,0.2398,-0.1678,-0.3161,32.3880,-13.6756,-124.7772,37.42279665359265,-122.16394038470577,29.1411,1.5806
2024-11-15T22:02:58.561Z,0.3643,0.8280,-2.2733,0.2169,-0.1544,-0.3087,32.2725,-13.7978,-125.1440,37.42279665359265,-122.16394038470577,29.1411,1.5806
2024-11-15T22:02:58.569Z,0.4027,0.9904,-2.1789,0.2169,-0.1544,-0.3087,32.1282,-13.7874,-125.1891,37.42279665359265,-122.16394038470577,29.1411,1.5806
2024-11-15T22:02:58.579Z,0.4027,0.9904,-2.1789,0.2180,-0.1379,-0.3809,32.1397,-13.8629,-125.3190,37.42279665359265,-122.16394038470577,29.1411,1.5806
2024-11-15T22:02:58.589Z,0.7701,1.3082,-1.8543,0.2264,-0.0973,-0.4565,32.1283,-13.8312,-125.0531,37.42279665359265,-122.16394038470577,29.1411,1.5806
2024-11-15T22:02:58.601Z,0.7329,1.2824,-1.4716,0.1932,0.0381,-0.5176,32.1747,-13.7716,-125.5978,37.42279665359265,-122.16394038470577,29.1411,1.5806
2024-11-15T22:02:58.609Z,0.7329,1.2824,-1.4716,0.0988,0.3229,-0.5285,32.3577,-13.7679,-125.1699,37.42279665359265,-122.16394038470577,29.1411,1.5806
2024-11-15T22:02:58.618Z,0.0997,0.9201,0.1806,-0.0305,0.7409,-0.4605,32.2497,-13.6811,-125.2045,37.42279665359265,-122.16394038470577,29.1411,1.5806
2024-11-15T22:02:58.628Z,0.0997,0.9201,0.1806,-0.1503,1.2298,-0.3358,33.0467,-13.7366,-125.0809,37.42279665359265,-122.16394038470577,29.1411,1.5806
2024-11-15T22:02:58.638Z,-0.3079,0.7956,1.6263,-0.2171,1.6365,-0.1986,33.5721,-13.5792,-124.7357,37.42279665359265,-122.16394038470577,29.1411,1.5806
2024-11-15T22:02:58.650Z,-1.1190,0.1882,4.5166,-0.1791,1.7636,-0.0967,34.4292,-13.4417,-124.1756,37.42279665359265,-122.16394038470577,29.1411,1.5806
2024-11-15T22:02:58.658Z,-1.1190,0.1882,4.5166,-0.1791,1.7636,-0.0967,35.2445,-13.2747,-123.7283,37.42279665359265,-122.16394038470577,29.1411,1.5806
2024-11-15T22:02:58.669Z,-1.1534,-0.0904,5.4618,0.1333,1.1898,-0.1133,36.1459,-13.3695,-123.4611,37.42279665359265,-122.16394038470577,29.1411,1.5806
2024-11-15T22:02:58.679Z,-0.7126,0.1709,5.9066,0.2562,0.5925,-0.2402,36.4503,-13.3598,-123.0466,37.42279665359265,-122.16394038470577,29.1411,1.5806
2024-11-15T22:02:58.689Z,-0.7126,0.1709,5.9066,0.2254,0.0197,-0.3785,36.6718,-13.4160,-122.8102,37.42279665359265,-122.16394038470577,29.1411,1.5806
2024-11-15T22:02:58.700Z,-0.3758,0.6091,5.1788,0.0542,-0.4121,-0.4616,36.3252,-13.4142,-122.8770,37.42279665359265,-122.16394038470577,29.1411,1.5806
2024-11-15T22:02:58.708Z,-0.8283,0.1265,3.1830,0.0542,-0.4121,-0.4616,36.2088,-13.3612,-123.2525,37.42279665359265,-122.16394038470577,29.1411,1.5806
2024-11-15T22:02:58.720Z,-1.2765,-0.3008,2.9067,-0.2159,-0.8532,-0.3864,35.8772,-13.1409,-123.9529,37.42279665359265,-122.16394038470577,29.1411,1.5806
2024-11-15T22:02:58.730Z,-1.2765,-0.3008,2.9067,-0.1434,-0.9062,-0.2915,35.4842,-12.8394,-124.0144,37.42279665359265,-122.16394038470577,29.1411,1.5806
2024-11-15T22:02:58.739Z,-0.7833,-0.3152,3.4403,0.0433,-0.8598,-0.1974,35.0991,-12.8101,-123.9142,37.42279665359265,-122.16394038470577,29.1411,1.5806
2024-11-15T22:02:58.751Z,-0.3298,-0.3018,3.3652,0.0433,-0.8598,-0.1974,34.7717,-13.0176,-124.5155,37.42279665359265,-122.16394038470577,29.1411,1.5806
2024-11-15T22:02:58.758Z,-0.3298,-0.3018,3.3652,0.2799,-0.7086,-0.1147,34.4605,-13.2403,-124.2151,37.42279665359265,-122.16394038470577,29.1411,1.5806
2024-11-15T22:02:58.768Z,0.5928,-0.2973,2.2250,0.4921,-0.4731,-0.0566,34.2464,-13.5017,-124.5964,37.42279665359265,-122.16394038470577,29.1411,1.5806
2024-11-15T22:02:58.778Z,0.5928,-0.2973,2.2250,0.6093,-0.1857,-0.0344,34.0906,-13.7007,-124.4155,37.42279665359265,-122.16394038470577,29.1411,1.5806
2024-11-15T22:02:58.789Z,0.8224,-0.3877,1.3486,0.5233,0.1851,-0.0668,34.2336,-14.0627,-124.2102,37.42279665359265,-122.16394038470577,29.1411,1.5806
2024-11-15T22:02:58.799Z,0.8541,-0.4691,-0.6333,0.5233,0.1851,-0.0668,34.4153,-14.4078,-124.3609,37.42279665359265,-122.16394038470577,29.1411,1.5806
2024-11-15T22:02:58.809Z,0.8541,-0.4691,-0.6333,0.3831,0.2016,-0.0916,34.4191,-14.4035,-124.1385,37.42279665359265,-122.16394038470577,29.1411,1.5806
2024-11-15T22:02:58.819Z,0.7481,-0.4124,-1.3228,0.2209,0.1634,-0.1075,34.5323,-14.4807,-123.9866,37.42279665359265,-122.16394038470577,29.1411,1.5806
2024-11-15T22:02:58.828Z,0.4007,-0.3578,-2.1189,0.0579,0.1121,-0.0895,34.5323,-14.4807,-123.9866,37.42279665359265,-122.16394038470577,29.1411,1.5806
2024-11-15T22:02:58.838Z,0.4007,-0.3578,-2.1189,-0.0793,0.0701,-0.0415,34.3269,-14.3916,-124.3345,37.42279665359265,-122.16394038470577,29.1411,1.5806
2024-11-15T22:02:58.849Z,0.2821,-0.3226,-2.2255,-0.1767,0.0444,0.0176,34.3692,-14.3934,-124.1546,37.42279665359265,-122.16394038470577,29.1411,1.5806
2024-11-15T22:02:58.858Z,0.1851,-0.3661,-2.4239,-0.2531,0.0326,0.0704,34.5175,-14.4757,-124.1786,37.42279665359265,-122.16394038470577,29.1411,1.5806
2024-11-15T22:02:58.868Z,0.1851,-0.3661,-2.4239,-0.3334,0.0303,0.1190,34.5771,-14.1717,-124.1979,37.42279665359265,-122.16394038470577,29.1411,1.5806
2024-11-15T22:02:58.878Z,0.1299,-0.4658,-2.5983,-0.4021,0.0413,0.1673,34.4670,-14.1956,-124.0852,37.42279665359265,-122.16394038470577,29.1411,1.5806
2024-11-15T22:02:58.888Z,0.0629,-0.7286,-2.6210,-0.4425,0.0597,0.2139,34.2382,-13.9730,-124.1736,37.42279665359265,-122.16394038470577,29.1411,1.5806
2024-11-15T22:02:58.901Z,0.0729,-0.8603,-2.4727,-0.4434,0.0837,0.2520,34.4454,-13.7376,-124.1756,37.42279665359265,-122.16394038470577,29.1411,1.5806
2024-11-15T22:02:58.908Z,0.0729,-0.8603,-2.4727,-0.3983,0.1121,0.2848,34.6360,-13.6286,-123.9740,37.42279665359265,-122.16394038470577,29.1411,1.5806
2024-11-15T22:02:58.918Z,0.2681,-1.1687,-2.1036,-0.3111,0.1340,0.2906,34.5046,-13.6604,-124.5324,37.42279665359265,-122.16394038470577,29.1411,1.5806
2024-11-15T22:02:58.928Z,0.2681,-1.1687,-2.1036,-0.1951,0.1511,0.2716,34.6367,-13.6559,-124.0096,37.42279665359265,-122.16394038470577,29.1411,1.5806
2024-11-15T22:02:58.938Z,0.5236,-1.2616,-1.9267,-0.0549,0.1569,0.2106,34.7476,-13.6321,-124.3574,37.42279665359265,-122.16394038470577,29.1411,1.5806
2024-11-15T22:02:58.949Z,0.9972,-1.1765,-1.9454,0.0817,0.1274,0.1122,34.5522,-13.6819,-124.0890,37.42279665359265,-122.16394038470577,29.1411,1.5806
2024-11-15T22:02:58.958Z,0.9972,-1.1765,-1.9454,0.1933,0.0594,-0.0081,34.6384,-13.8472,-123.7743,37.42279665359265,-122.16394038470577,29.1411,1.5806
2024-11-15T22:02:58.968Z,1.0757,-1.0549,-2.1598,0.2495,-0.0134,-0.1238,34.5025,-13.9637,-124.0338,37.42279665359265,-122.16394038470577,29.1411,1.5806
2024-11-15T22:02:58.978Z,0.7399,-0.5896,-2.4745,0.2545,-0.0749,-0.1953,34.6554,-13.9537,-123.6844,37.42279665359265,-122.16394038470577,29.1411,1.5806
2024-11-15T22:02:58.988Z,0.7399,-0.5896,-2.4745,0.2103,-0.1532,-0.2150,34.4262,-13.8872,-123.9362,37.42279665359265,-122.16394038470577,29.1411,1.5806
2024-11-15T22:02:59.000Z,0.5950,-0.1791,-2.5371,0.1366,-0.2373,-0.1894,34.4108,-14.1046,-124.4099,37.42279665359265,-122.16394038470577,29.1411,1.5806
2024-11-15T22:02:59.008Z,0.3275,0.3925,-2.2656,0.0626,-0.3146,-0.1258,34.2179,-14.1973,-124.0941,37.42279665359265,-122.16394038470577,29.1411,1.5806
2024-11-15T22:02:59.018Z,0.3275,0.3925,-2.2656,-0.0092,-0.3566,-0.0391,34.1013,-14.3131,-124.4442,37.42279665359265,-122.16394038470577,29.1411,1.5806
2024-11-15T22:02:59.028Z,0.2368,0.5182,-1.9092,-0.0650,-0.3346,0.0515,33.7951,-14.0533,-124.5970,37.42279665359265,-122.16394038470577,29.1411,1.5806
2024-11-15T22:02:59.038Z,0.3549,0.4148,-0.8821,-0.0857,-0.2660,0.1287,33.6927,-14.0298,-124.3417,37.42279665359265,-122.16394038470577,29.1411,1.5806
2024-11-15T22:02:59.049Z,0.3549,0.4148,-0.8821,-0.0856,-0.1559,0.1710,33.6571,-14.1596,-124.5849,37.422799987917735,-122.163957693591,29.1263,1.5656
2024-11-15T22:02:59.058Z,0.4567,0.2589,-0.3633,-0.0638,-0.0068,0.1809,33.5524,-14.2474,-124.9734,37.422799987917735,-122.163957693591,29.1263,1.5656
2024-11-15T22:02:59.069Z,0.5849,-0.0641,1.1474,-0.0041,0.1563,0.1662,33.4664,-14.3569,-125.0067,37.422799987917735,-122.163957693591,29.1263,1.5656
2024-11-15T22:02:59.078Z,0.5849,-0.0641,1.1474,0.1027,0.2987,0.1279,33.8016,-14.3758,-124.6370,37.422799987917735,-122.163957693591,29.1263,1.5656
2024-11-15T22:02:59.088Z,0.6418,-0.0564,1.8836,0.2374,0.3889,0.0776,34.1032,-14.6341,-124.2995,37.422799987917735,-122.163957693591,29.1263,1.5656
2024-11-15T22:02:59.100Z,0.3830,0.1135,2.6919,0.3531,0.4163,0.0256,34.3049,-15.0373,-124.3257,37.422799987917735,-122.163957693591,29.1263,1.5656
2024-11-15T22:02:59.108Z,0.3830,0.1135,2.6919,0.4145,0.3774,-0.0029,34.4476,-15.2794,-124.3776,37.422799987917735,-122.163957693591,29.1263,1.5656
2024-11-15T22:02:59.118Z,0.1706,0.1250,2.6710,0.4001,0.2903,-0.0123,34.5774,-15.2853,-124.1315,37.422799987917735,-122.163957693591,29.1263,1.5656
2024-11-15T22:02:59.128Z,-0.4469,0.1472,2.2111,0.3028,0.1675,0.0046,34.4230,-15.5270,-124.3496,37.422799987917735,-122.163957693591,29.1263,1.5656
2024-11-15T22:02:59.139Z,-0.4469,0.1472,2.2111,0.1385,0.0305,0.0582,34.2560,-15.4993,-124.3297,37.422799987917735,-122.163957693591,29.1263,1.5656
2024-11-15T22:02:59.150Z,-0.8456,-0.0334,2.0285,-0.0406,-0.1186,0.1343,34.2560,-15.4993,-124.3297,37.422799987917735,-122.163957693591,29.1263,1.5656
2024-11-15T22:02:59.158Z,-1.2227,-0.7552,2.6481,-0.1575,-0.2624,0.2013,34.1050,-15.5347,-124.3761,37.422799987917735,-122.163957693591,29.1263,1.5656
2024-11-15T22:02:59.168Z,-1.2227,-0.7552,2.6481,-0.1271,-0.4249,0.2238,33.9723,-15.5795,-124.1522,37.422799987917735,-122.163957693591,29.1263,1.5656
2024-11-15T22:02:59.178Z,-0.9581,-0.8492,3.4101,0.0404,-0.5939,0.1907,33.6378,-15.6646,-123.9015,37.422799987917735,-122.163957693591,29.1263,1.5656
2024-11-15T22:02:59.188Z,0.0678,-0.2208,3.8399,0.2639,-0.7252,0.1349,33.1626,-15.7609,-124.6112,37.422799987917735,-122.163957693591,29.1263,1.5656
2024-11-15T22:02:59.200Z,0.0678,-0.2208,3.8399,0.4317,-0.7389,0.0912,32.9158,-15.7063,-125.0403,37.422799987917735,-122.163957693591,29.1263,1.5656
2024-11-15T22:02:59.208Z,0.3142,-0.0519,3.2457,0.4925,-0.6343,0.0743,32.6151,-16.2374,-125.1292,37.422799987917735,-122.163957693591,29.1263,1.5656
2024-11-15T22:02:59.218Z,0.2339,-0.2681,1.4951,0.4300,-0.4680,0.0880,32.2257,-16.5398,-124.7980,37.422799987917735,-122.163957693591,29.1263,1.5656
2024-11-15T22:02:59.228Z,0.2339,-0.2681,1.4951,0.2766,-0.2689,0.1446,31.9825,-16.7032,-124.9552,37.422799987917735,-122.163957693591,29.1263,1.5656
2024-11-15T22:02:59.238Z,-0.1299,-0.5893,0.8781,0.1019,-0.0955,0.2383,31.7487,-16.6637,-125.1190,37.422799987917735,-122.163957693591,29.1263,1.5656
2024-11-15T22:02:59.250Z,-0.5170,-0.9027,0.5200,-0.0325,-0.0032,0.3193,31.8365,-16.8814,-124.8619,37.422799987917735,-122.163957693591,29.1263,1.5656
2024-11-15T22:02:59.258Z,-0.5170,-0.9027,0.5200,-0.1083,0.0295,0.3666,31.9470,-16.7460,-124.7477,37.422799987917735,-122.163957693591,29.1263,1.5656
2024-11-15T22:02:59.268Z,-0.5093,-1.0138,0.5804,-0.1248,0.0470,0.3697,31.7394,-16.8969,-124.7886,37.422799987917735,-122.163957693591,29.1263,1.5656
2024-11-15T22:02:59.278Z,-0.1795,-1.0142,0.5971,-0.0894,0.0534,0.3297,31.7224,-16.9896,-124.5578,37.422799987917735,-122.163957693591,29.1263,1.5656
2024-11-15T22:02:59.288Z,-0.1795,-1.0142,0.5971,-0.0306,0.0544,0.2449,31.7328,-16.9143,-124.8088,37.422799987917735,-122.163957693591,29.1263,1.5656
2024-11-15T22:02:59.300Z,0.1345,-0.7079,0.3593,0.0004,0.0410,0.1357,31.8107,-16.9202,-124.9251,37.422799987917735,-122.163957693591,29.1263,1.5656
2024-11-15T22:02:59.308Z,0.3474,-0.2065,-0.7319,-0.0319,0.0235,0.0416,31.7415,-17.0791,-125.1083,37.422799987917735,-122.163957693591,29.1263,1.5656
2024-11-15T22:02:59.318Z,0.3474,-0.2065,-0.7319,-0.1182,0.0455,-0.0195,31.5495,-17.0390,-124.7375,37.422799987917735,-122.163957693591,29.1263,1.5656
2024-11-15T22:02:59.328Z,0.2970,0.0155,-1.2186,-0.2585,0.1050,-0.0372,31.9725,-16.9553,-124.8152,37.422799987917735,-122.163957693591,29.1263,1.5656
2024-11-15T22:02:59.338Z,0.0505,0.1702,-1.8768,-0.4296,0.1632,-0.0143,31.8719,-16.5584,-124.8612,37.422799987917735,-122.163957693591,29.1263,1.5656
2024-11-15T22:02:59.349Z,0.0505,0.1702,-1.8768,-0.6074,0.1808,0.0275,31.9287,-16.2712,-125.1689,37.422799987917735,-122.163957693591,29.1263,1.5656
2024-11-15T22:02:59.358Z,-0.1056,0.0833,-2.0801,-0.7654,0.1932,0.0756,32.0283,-15.9016,-125.0077,37.422799987917735,-122.163957693591,29.1263,1.5656
2024-11-15T22:02:59.369Z,-0.2296,-0.3146,-1.7564,-0.8651,0.1987,0.1217,32.1649,-15.7427,-124.9564,37.422799987917735,-122.163957693591,29.1263,1.5656
2024-11-15T22:02:59.378Z,-0.2296,-0.3146,-1.7564,-0.8759,0.1776,0.1430,32.0744,-15.1999,-125.2213,37.422799987917735,-122.163957693591,29.1263,1.5656
2024-11-15T22:02:59.388Z,-0.1214,-0.4252,-1.4035,-0.7782,0.1244,0.1263,32.0355,-14.7522,-125.2449,37.422799987917735,-122.163957693591,29.1263,1.5656
2024-11-15T22:02:59.400Z,0.3832,-0.6418,-0.7874,-0.5942,0.0577,0.0609,32.1314,-14.7286,-125.1661,37.422799987917735,-122.163957693591,29.1263,1.5656
2024-11-15T22:02:59.408Z,0.3832,-0.6418,-0.7874,-0.3579,-0.0027,-0.0431,32.2510,-14.5425,-124.8228,37.422799987917735,-122.163957693591,29.1263,1.5656
2024-11-15T22:02:59.418Z,0.5889,-0.6731,-0.6902,-0.1259,-0.0511,-0.1626,32.3031,-14.4811,-125.0931,37.422799987917735,-122.163957693591,29.1263,1.5656
2024-11-15T22:02:59.429Z,0.5314,-0.6172,-1.2218,0.0577,-0.0391,-0.2628,32.3419,-14.4922,-125.1148,37.422799987917735,-122.163957693591,29.1263,1.5656
2024-11-15T22:02:59.439Z,0.5314,-0.6172,-1.2218,0.1612,0.0123,-0.3044,32.4157,-14.6222,-125.0726,37.422799987917735,-122.163957693591,29.1263,1.5656
2024-11-15T22:02:59.450Z,0.2780,-0.5860,-1.6035,0.2076,0.0586,-0.2795,32.5097,-14.6508,-125.1285,37.422799987917735,-122.163957693591,29.1263,1.5656
2024-11-15T22:02:59.458Z,-0.1350,-0.0953,-2.1472,0.2160,0.0897,-0.2085,32.5097,-14.6508,-125.1285,37.422799987917735,-122.163957693591,29.1263,1.5656
2024-11-15T22:02:59.469Z,-0.1350,-0.0953,-2.1472,0.1951,0.0843,-0.1356,32.7195,-14.8520,-124.8253,37.422799987917735,-122.163957693591,29.1263,1.5656
2024-11-15T22:02:59.478Z,-0.0606,0.1495,-2.2291,0.1604,0.0488,-0.0737,32.7195,-14.8520,-124.8253,37.422799987917735,-122.163957693591,29.1263,1.5656
2024-11-15T22:02:59.488Z,0.0698,0.2695,-2.2187,0.1055,0.0155,-0.0392,32.4418,-14.6759,-124.6446,37.422799987917735,-122.163957693591,29.1263,1.5656
2024-11-15T22:02:59.500Z,0.0698,0.2695,-2.2187,0.0506,-0.0128,-0.0208,32.5446,-14.9587,-124.8066,37.422799987917735,-122.163957693591,29.1263,1.5656
2024-11-15T22:02:59.508Z,0.1069,0.1106,-1.9586,0.0249,-0.0394,-0.0346,32.4678,-15.0224,-124.9579,37.422799987917735,-122.163957693591,29.1263,1.5656
2024-11-15T22:02:59.518Z,0.2572,-0.0723,-1.1880,0.0196,-0.0622,-0.0852,32.4602,-14.9225,-124.8905,37.422799987917735,-122.163957693591,29.1263,1.5656
2024-11-15T22:02:59.528Z,0.2572,-0.0723,-1.1880,0.0346,-0.0840,-0.1565,32.3489,-14.8775,-125.0829,37.422799987917735,-122.163957693591,29.1263,1.5656
2024-11-15T22:02:59.538Z,0.2921,-0.0638,-0.8174,0.0802,-0.1135,-0.2314,32.4254,-14.6588,-124.7406,37.422799987917735,-122.163957693591,29.1263,1.5656
2024-11-15T22:02:59.550Z,0.1522,0.1360,-0.1196,0.1362,-0.1369,-0.3016,32.3799,-14.9243,-124.6578,37.422799987917735,-122.163957693591,29.1263,1.5656
2024-11-15T22:02:59.558Z,0.1522,0.1360,-0.1196,0.1930,-0.1371,-0.3506,32.3623,-14.9320,-124.7401,37.422799987917735,-122.163957693591,29.1263,1.5656
2024-11-15T22:02:59.568Z,0.0162,0.1989,0.0945,0.2319,-0.1014,-0.3671,32.0506,-14.9290,-124.9440,37.422799987917735,-122.163957693591,29.1263,1.5656
2024-11-15T22:02:59.579Z,-0.2766,0.4782,0.5731,0.2609,-0.0307,-0.3578,32.1003,-14.9411,-124.9398,37.422799987917735,-122.163957693591,29.1263,1.5656
2024-11-15T22:02:59.588Z,-0.2766,0.4782,0.5731,0.2818,0.0815,-0.3284,32.2543,-14.8598,-125.0503,37.422799987917735,-122.163957693591,29.1263,1.5656
2024-11-15T22:02:59.599Z,-0.3474,0.6217,0.9075,0.2980,0.2007,-0.2736,32.4539,-15.2056,-124.9001,37.422799987917735,-122.163957693591,29.1263,1.5656
2024-11-15T22:02:59.608Z,-0.4994,0.8448,1.6265,0.3190,0.3221,-0.2092,32.6575,-15.1289,-124.4176,37.422799987917735,-122.163957693591,29.1263,1.5656
2024-11-15T22:02:59.618Z,-0.4994,0.8448,1.6265,0.3365,0.4304,-0.1523,32.9509,-15.3090,-124.6453,37.422799987917735,-122.163957693591,29.1263,1.5656
2024-11-15T22:02:59.628Z,-0.3903,0.7684,2.0341,0.3546,0.4893,-0.1400,33.1747,-15.5119,-124.4697,37.422799987917735,-122.163957693591,29.1263,1.5656
2024-11-15T22:02:59.638Z,-0.2512,0.3442,2.3312,0.3533,0.4741,-0.1789,33.5112,-15.5377,-123.9654,37.422799987917735,-122.163957693591,29.1263,1.5656
2024-11-15T22:02:59.649Z,-0.2512,0.3442,2.3312,0.3193,0.3943,-0.2556,33.5152,-15.5549,-123.8356,37.422799987917735,-122.163957693591,29.1263,1.5656
2024-11-15T22:02:59.658Z,-0.1915,0.1537,2.2461,0.2570,0.2453,-0.3603,33.8030,-15.6626,-124.1941,37.422799987917735,-122.163957693591,29.1263,1.5656
2024-11-15T22:02:59.669Z,0.0414,0.6814,1.9784,0.1948,0.0506,-0.4855,33.7944,-15.5312,-124.0715,37.422799987917735,-122.163957693591,29.1263,1.5656
2024-11-15T22:02:59.678Z,0.0414,0.6814,1.9784,0.0945,-0.1484,-0.5824,33.8758,-15.5272,-124.0461,37.422799987917735,-122.163957693591,29.1263,1.5656
2024-11-15T22:02:59.688Z,-0.0260,1.1243,1.7640,-0.0698,-0.2475,-0.5865,33.6695,-15.2014,-124.0199,37.422799987917735,-122.163957693591,29.1263,1.5656
2024-11-15T22:02:59.699Z,-0.8557,1.0527,1.7948,-0.2727,-0.2158,-0.4793,33.5699,-14.8231,-124.4097,37.422799987917735,-122.163957693591,29.1263,1.5656
2024-11-15T22:02:59.708Z,-0.8557,1.0527,1.7948,-0.4241,-0.1064,-0.3181,33.5831,-14.7160,-124.2335,37.422799987917735,-122.163957693591,29.1263,1.5656
2024-11-15T22:02:59.718Z,-1.0359,0.9185,2.2427,-0.4780,0.0335,-0.1421,33.5974,-14.2454,-124.1750,37.422799987917735,-122.163957693591,29.1263,1.5656
2024-11-15T22:02:59.729Z,-0.8577,0.0221,3.3723,-0.4074,0.1748,0.0016,33.6823,-14.0524,-124.0705,37.422799987917735,-122.163957693591,29.1263,1.5656
2024-11-15T22:02:59.738Z,-0.8577,0.0221,3.3723,-0.2080,0.3210,0.1024,33.9601,-14.0706,-123.9608,37.422799987917735,-122.163957693591,29.1263,1.5656
2024-11-15T22:02:59.749Z,-0.5063,-0.4787,3.7652,0.0797,0.4551,0.1303,34.1079,-14.1606,-123.8082,37.422799987917735,-122.163957693591,29.1263,1.5656
2024-11-15T22:02:59.758Z,-0.5063,-0.4787,3.7652,0.3776,0.5443,0.0684,34.4467,-14.5062,-123.5310,37.422799987917735,-122.163957693591,29.1263,1.5656
2024-11-15T22:02:59.769Z,0.5106,-0.5204,3.0687,0.5746,0.6066,-0.0339,34.4467,-14.5062,-123.5310,37.422799987917735,-122.163957693591,29.1263,1.5656
2024-11-15T22:02:59.779Z,0.7584,-0.5496,2.0263,0.6191,0.5922,-0.1318,34.7883,-14.8148,-123.3811,37.422799987917735,-122.163957693591,29.1263,1.5656
2024-11-15T22:02:59.789Z,0.3760,-0.4459,-0.4795,0.5289,0.4901,-0.2016,35.0594,-14.9609,-123.0359,37.422799987917735,-122.163957693591,29.1263,1.5656
2024-11-15T22:02:59.799Z,0.3760,-0.4459,-0.4795,0.3552,0.2926,-0.2276,35.2331,-15.0719,-122.5802,37.422799987917735,-122.163957693591,29.1263,1.5656
2024-11-15T22:02:59.808Z,0.2135,-0.2328,-1.4477,0.1269,0.0408,-0.2210,35.2736,-15.1513,-122.7951,37.422799987917735,-122.163957693591,29.1263,1.5656
2024-11-15T22:02:59.818Z,0.2135,-0.2328,-1.4477,-0.1098,-0.2154,-0.1772,35.4123,-15.0580,-123.0231,37.422799987917735,-122.163957693591,29.1263,1.5656
2024-11-15T22:02:59.829Z,0.0095,0.0638,-2.3860,-0.3109,-0.4217,-0.1107,35.1364,-14.9274,-122.7810,37.422799987917735,-122.163957693591,29.1263,1.5656
2024-11-15T22:02:59.838Z,0.0333,0.0953,-2.3924,-0.4524,-0.5289,-0.0423,34.8987,-14.7262,-122.8409,37.422799987917735,-122.163957693591,29.1263,1.5656
2024-11-15T22:02:59.848Z,0.0333,0.0953,-2.3924,-0.5394,-0.5288,0.0339,34.8305,-14.3450,-123.1903,37.422799987917735,-122.163957693591,29.1263,1.5656
2024-11-15T22:02:59.858Z,0.1172,-0.1769,-1.9870,-0.5766,-0.4563,0.0937,34.5957,-14.0625,-123.3908,37.422799987917735,-122.163957693591,29.1263,1.5656
2024-11-15T22:02:59.869Z,0.1137,-0.3166,-1.7990,-0.5690,-0.3252,0.1325,34.1678,-13.7626,-123.3747,37.422799987917735,-122.163957693591,29.1263,1.5656
2024-11-15T22:02:59.878Z,0.1137,-0.3166,-1.7990,-0.5073,-0.1749,0.1638,34.4041,-13.5426,-123.7047,37.422799987917735,-122.163957693591,29.1263,1.5656
2024-11-15T22:02:59.888Z,0.0748,-0.7149,-1.4575,-0.3886,-0.0424,0.1904,34.1291,-13.4941,-123.6636,37.422799987917735,-122.163957693591,29.1263,1.5656
2024-11-15T22:02:59.898Z,0.0698,-0.7446,-1.3236,-0.2333,0.0345,0.2041,34.1870,-13.3845,-123.6244,37.422799987917735,-122.163957693591,29.1263,1.5656
2024-11-15T22:02:59.908Z,0.0698,-0.7446,-1.3236,-0.0722,0.0468,0.2050,34.1499,-13.4302,-123.7296,37.422799987917735,-122.163957693591,29.1263,1.5656
2024-11-15T22:02:59.918Z,0.1580,-0.7860,-1.6911,0.0589,0.0158,0.1979,34.0768,-13.5784,-123.6993,37.422799987917735,-122.163957693591,29.1263,1.5656
2024-11-15T22:02:59.928Z,0.2583,-0.7604,-2.0698,0.1428,-0.0409,0.1794,34.2777,-13.7014,-123.3695,37.422799987917735,-122.163957693591,29.1263,1.5656
2024-11-15T22:02:59.938Z,0.2583,-0.7604,-2.0698,0.1677,-0.0951,0.1496,34.0000,-13.7040,-123.5200,37.422799987917735,-122.163957693591,29.1263,1.5656
2024-11-15T22:02:59.949Z,0.5993,-0.5969,-2.9030,0.1448,-0.1375,0.1297,34.0709,-13.7689,-123.3694,37.422799987917735,-122.163957693591,29.1263,1.5656
2024-11-15T22:02:59.958Z,0.6572,-0.5829,-3.1587,0.0896,-0.1543,0.1180,33.8656,-13.8661,-123.2497,37.422799987917735,-122.163957693591,29.1263,1.5656
2024-11-15T22:02:59.968Z,0.6572,-0.5829,-3.1587,0.0228,-0.1163,0.1190,33.9320,-13.9759,-123.6774,37.422799987917735,-122.163957693591,29.1263,1.5656
2024-11-15T22:02:59.978Z,0.6813,-0.4555,-2.9717,-0.0333,-0.0249,0.1394,33.7624,-13.8469,-123.6750,37.422799987917735,-122.163957693591,29.1263,1.5656
2024-11-15T22:02:59.988Z,0.6004,-0.4275,-2.5160,-0.0581,0.0897,0.1858,33.8884,-13.7300,-123.1820,37.422799987917735,-122.163957693591,29.1263,1.5656
2024-11-15T22:03:00.001Z,0.4509,-0.3999,-1.2060,-0.0275,0.1791,0.2262,34.0323,-13.9629,-123.4013,37.422799987917735,-122.163957693591,29.1263,1.5656
2024-11-15T22:03:00.008Z,0.4509,-0.3999,-1.2060,0.0402,0.2221,0.2400,34.0460,-13.9440,-123.2594,37.422799987917735,-122.163957693591,29.1263,1.5656
2024-11-15T22:03:00.019Z,0.5557,-0.3541,-0.6402,0.1203,0.2230,0.2213,34.0832,-14.1697,-123.4355,37.422799987917735,-122.163957693591,29.1263,1.5656
2024-11-15T22:03:00.028Z,0.5557,-0.3541,-0.6402,0.1933,0.1736,0.1864,34.1160,-14.3655,-123.3821,37.422799987917735,-122.163957693591,29.1263,1.5656
2024-11-15T22:03:00.038Z,0.5799,-0.3724,-0.1950,0.2371,0.0766,0.1385,34.1758,-14.4771,-123.2684,37.422799987917735,-122.163957693591,29.1263,1.5656
2024-11-15T22:03:00.050Z,0.5481,-0.4359,-0.2171,0.2486,-0.0322,0.0800,34.1734,-14.5014,-123.4227,37.42280302652972,-122.16397452646922,29.2289,1.4751
2024-11-15T22:03:00.058Z,0.5481,-0.4359,-0.2171,0.2321,-0.1566,0.0139,33.9542,-14.6871,-123.2443,37.42280302652972,-122.16397452646922,29.2289,1.4751
2024-11-15T22:03:00.068Z,0.5947,-0.3278,-0.3306,0.1822,-0.2717,-0.0465,33.8885,-14.6759,-123.6112,37.42280302652972,-122.16397452646922,29.2289,1.4751
2024-11-15T22:03:00.078Z,0.5791,-0.1204,-0.4121,0.0975,-0.3688,-0.0894,33.7846,-14.6764,-123.3775,37.42280302652972,-122.16397452646922,29.2289,1.4751
2024-11-15T22:03:00.088Z,0.5791,-0.1204,-0.4121,-0.0204,-0.4169,-0.1119,33.5819,-14.6389,-123.3104,37.42280302652972,-122.16397452646922,29.2289,1.4751
2024-11-15T22:03:00.100Z,0.4102,0.1657,-0.2783,-0.1589,-0.3979,-0.1179,33.3658,-14.5762,-123.5949,37.42280302652972,-122.16397452646922,29.2289,1.4751
2024-11-15T22:03:00.108Z,0.3252,0.2495,0.0816,-0.2950,-0.3149,-0.1137,33.3658,-14.5762,-123.5949,37.42280302652972,-122.16397452646922,29.2289,1.4751
2024-11-15T22:03:00.118Z,0.3252,0.2495,0.0816,-0.4048,-0.1745,-0.1070,33.2392,-14.6443,-124.0340,37.42280302652972,-122.16397452646922,29.2289,1.4751
2024-11-15T22:03:00.128Z,0.2017,0.1696,1.2471,-0.4773,-0.0392,-0.0912,33.2654,-14.2426,-123.7623,37.42280302652972,-122.16397452646922,29.2289,1.4751
2024-11-15T22:03:00.138Z,-0.0008,-0.0124,1.8290,-0.5026,0.0690,-0.0672,33.3081,-13.9618,-123.8570,37.42280302652972,-122.16397452646922,29.2289,1.4751
2024-11-15T22:03:00.152Z,-0.4817,-0.5985,2.9178,-0.4853,0.1437,-0.0519,33.2110,-13.6420,-123.9004,37.42280302652972,-122.16397452646922,29.2289,1.4751
2024-11-15T22:03:00.158Z,-0.4817,-0.5985,2.9178,-0.4010,0.1559,-0.0497,33.4499,-13.2932,-124.0108,37.42280302652972,-122.16397452646922,29.2289,1.4751
2024-11-15T22:03:00.168Z,-0.5885,-0.6724,3.4536,-0.2553,0.0813,-0.0479,33.4734,-13.1441,-124.2272,37.42280302652972,-122.16397452646922,29.2289,1.4751
2024-11-15T22:03:00.178Z,-0.5885,-0.6724,3.4536,-0.0918,-0.0565,-0.0304,33.6279,-13.1586,-124.0279,37.42280302652972,-122.16397452646922,29.2289,1.4751
2024-11-15T22:03:00.188Z,-0.4466,-0.0413,3.7164,0.0021,-0.1917,0.0074,33.5206,-13.0768,-123.8213,37.42280302652972,-122.16397452646922,29.2289,1.4751
2024-11-15T22:03:00.199Z,-0.3573,0.3702,2.9927,-0.0609,-0.2510,0.0605,33.3441,-13.0354,-123.8195,37.42280302652972,-122.16397452646922,29.2289,1.4751
2024-11-15T22:03:00.208Z,-0.3573,0.3702,2.9927,-0.2967,-0.2232,0.1184,33.1914,-12.7795,-123.6980,37.42280302652972,-122.16397452646922,29.2289,1.4751
2024-11-15T22:03:00.218Z,-0.4260,0.0981,1.0669,-0.6213,-0.1253,0.1978,33.0344,-12.6895,-124.0963,37.42280302652972,-122.16397452646922,29.2289,1.4751
2024-11-15T22:03:00.228Z,-0.6935,-0.3117,0.7739,-0.8918,-0.0303,0.2810,33.0066,-12.3348,-124.1571,37.42280302652972,-122.16397452646922,29.2289,1.4751
2024-11-15T22:03:00.238Z,-0.6935,-0.3117,0.7739,-1.0014,0.0021,0.3582,33.1470,-12.0892,-124.2339,37.42280302652972,-122.16397452646922,29.2289,1.4751
2024-11-15T22:03:00.250Z,-1.0174,-1.2733,2.1591,-0.9612,0.0032,0.3930,33.1129,-11.6921,-124.1005,37.42280302652972,-122.16397452646922,29.2289,1.4751
2024-11-15T22:03:00.258Z,-0.8821,-1.4472,2.9663,-0.7853,-0.0291,0.3757,33.1096,-11.3462,-124.0930,37.42280302652972,-122.16397452646922,29.2289,1.4751
2024-11-15T22:03:00.268Z,-0.8821,-1.4472,2.9663,-0.5081,-0.1084,0.2962,33.0470,-11.1948,-124.5289,37.42280302652972,-122.16397452646922,29.2289,1.4751
2024-11-15T22:03:00.278Z,-0.2647,-1.5722,3.6405,-0.2239,-0.1922,0.1722,32.9755,-11.0344,-124.2359,37.42280302652972,-122.16397452646922,29.2289,1.4751
2024-11-15T22:03:00.288Z,0.1387,-1.2104,3.1836,-0.0340,-0.2425,0.0477,32.8246,-11.1142,-124.3241,37.42280302652972,-122.16397452646922,29.2289,1.4751
2024-11-15T22:03:00.300Z,0.1387,-1.2104,3.1836,0.0358,-0.2783,-0.0322,32.7502,-11.1418,-124.4867,37.42280302652972,-122.16397452646922,29.2289,1.4751
2024-11-15T22:03:00.308Z,0.2800,-0.4550,1.1026,0.0140,-0.2979,-0.0576,32.4751,-11.0643,-124.5224,37.42280302652972,-122.16397452646922,29.2289,1.4751
2024-11-15T22:03:00.319Z,0.1242,-0.1798,0.0913,0.0140,-0.2979,-0.0576,32.2359,-10.9402,-124.9176,37.42280302652972,-122.16397452646922,29.2289,1.4751
2024-11-15T22:03:00.328Z,0.1242,-0.1798,0.0913,-0.1868,-0.2788,0.0251,32.2233,-11.0115,-124.8394,37.42280302652972,-122.16397452646922,29.2289,1.4751
2024-11-15T22:03:00.338Z,0.0067,-0.0257,-1.3223,-0.3066,-0.2395,0.0846,32.0562,-10.7247,-124.6179,37.42280302652972,-122.16397452646922,29.2289,1.4751
2024-11-15T22:03:00.349Z,0.0867,-0.1098,-1.7672,-0.4001,-0.1894,0.1304,31.8222,-10.6477,-125.0307,37.42280302652972,-122.16397452646922,29.2289,1.4751
2024-11-15T22:03:00.358Z,0.0867,-0.1098,-1.7672,-0.4350,-0.1477,0.1449,31.8874,-10.4706,-125.1477,37.42280302652972,-122.16397452646922,29.2289,1.4751
2024-11-15T22:03:00.368Z,0.3371,-0.4628,-1.9779,-0.4114,-0.1228,0.1214,31.8235,-10.1281,-125.1893,37.42280302652972,-122.16397452646922,29.2289,1.4751
2024-11-15T22:03:00.378Z,0.5094,-0.4957,-2.0218,-0.3624,-0.1107,0.0808,31.8381,-10.0932,-125.2498,37.42280302652972,-122.16397452646922,29.2289,1.4751
2024-11-15T22:03:00.388Z,0.5094,-0.4957,-2.0218,-0.3162,-0.0941,0.0392,31.6851,-9.9280,-125.2616,37.42280302652972,-122.16397452646922,29.2289,1.4751
2024-11-15T22:03:00.399Z,0.5081,-0.4167,-2.4042,-0.2837,-0.0628,0.0131,31.7657,-9.7771,-125.1786,37.42280302652972,-122.16397452646922,29.2289,1.4751
2024-11-15T22:03:00.409Z,0.3574,-0.2948,-2.5741,-0.2582,-0.0300,0.0161,31.6825,-9.6022,-125.0400,37.42280302652972,-122.16397452646922,29.2289,1.4751
2024-11-15T22:03:00.419Z,0.3574,-0.2948,-2.5741,-0.2387,-0.0074,0.0515,31.7766,-9.5310,-125.1365,37.42280302652972,-122.16397452646922,29.2289,1.4751
2024-11-15T22:03:00.429Z,-0.0614,-0.0353,-2.6622,-0.2268,0.0023,0.1077,31.7137,-9.4098,-125.1889,37.42280302652972,-122.16397452646922,29.2289,1.4751
2024-11-15T22:03:00.439Z,-0.2479,0.0583,-2.7317,-0.2313,-0.0072,0.1764,31.7137,-9.4098,-125.1889,37.42280302652972,-122.16397452646922,29.2289,1.4751
2024-11-15T22:03:00.450Z,-0.2479,0.0583,-2.7317,-0.2275,-0.0480,0.2243,31.7346,-9.5262,-125.2954,37.42280302652972,-122.16397452646922,29.2289,1.4751
2024-11-15T22:03:00.458Z,-0.1036,0.2475,-2.7731,-0.2067,-0.1272,0.2335,31.4713,-9.2486,-125.5079,37.42280302652972,-122.16397452646922,29.2289,1.4751
2024-11-15T22:03:00.469Z,0.1917,0.3843,-2.8031,-0.1919,-0.1981,0.1937,31.7072,-9.2720,-125.4653,37.42280302652972,-122.16397452646922,29.2289,1.4751
2024-11-15T22:03:00.478Z,0.1917,0.3843,-2.8031,-0.2033,-0.2269,0.1380,31.5845,-9.2219,-125.5845,37.42280302652972,-122.16397452646922,29.2289,1.4751
2024-11-15T22:03:00.488Z,0.6796,0.4886,-2.8732,-0.2288,-0.1899,0.0677,31.4392,-9.0103,-125.7610,37.42280302652972,-122.16397452646922,29.2289,1.4751
2024-11-15T22:03:00.500Z,0.7554,0.4620,-2.6610,-0.2522,-0.1123,0.0004,31.3728,-8.8671,-125.5794,37.42280302652972,-122.16397452646922,29.2289,1.4751
2024-11-15T22:03:00.508Z,0.7554,0.4620,-2.6610,-0.2560,-0.0147,-0.0207,31.1317,-8.7361,-125.5848,37.42280302652972,-122.16397452646922,29.2289,1.4751
2024-11-15T22:03:00.518Z,0.3027,0.4408,-1.6962,-0.2442,0.0837,0.0044,31.2905,-8.7028,-125.7908,37.42280302652972,-122.16397452646922,29.2289,1.4751
2024-11-15T22:03:00.528Z,-0.0436,0.4691,-1.1908,-0.2233,0.1796,0.0523,31.3871,-8.4713,-125.6655,37.42280302652972,-122.16397452646922,29.2289,1.4751
2024-11-15T22:03:00.538Z,-0.0436,0.4691,-1.1908,-0.2057,0.2372,0.0942,31.4942,-8.4968,-125.4818,37.42280302652972,-122.16397452646922,29.2289,1.4751
2024-11-15T22:03:00.548Z,-0.2431,0.4635,-0.3768,-0.1842,0.2480,0.0980,31.5624,-8.4393,-125.3501,37.42280302652972,-122.16397452646922,29.2289,1.4751
2024-11-15T22:03:00.558Z,-0.1400,0.4018,-0.0172,-0.1659,0.2105,0.0522,31.7699,-8.3383,-125.5986,37.42280302652972,-122.16397452646922,29.2289,1.4751
2024-11-15T22:03:00.568Z,-0.1400,0.4018,-0.0172,-0.1409,0.1353,-0.0616,31.7406,-8.2354,-125.2780,37.42280302652972,-122.16397452646922,29.2289,1.4751
2024-11-15T22:03:00.578Z,0.4575,0.2697,0.6728,-0.0911,0.0351,-0.2125,31.9366,-8.1481,-125.3057,37.42280302652972,-122.16397452646922,29.2289,1.4751
2024-11-15T22:03:00.588Z,0.7369,0.3410,1.1122,-0.0060,-0.0609,-0.3733,31.8710,-7.9576,-125.3974,37.42280302652972,-122.16397452646922,29.2289,1.4751
2024-11-15T22:03:00.600Z,0.7369,0.3410,1.1122,0.1003,-0.1372,-0.5075,31.6536,-7.7555,-125.1850,37.42280302652972,-122.16397452646922,29.2289,1.4751
2024-11-15T22:03:00.608Z,0.6981,0.5248,1.8137,0.1772,-0.1920,-0.6050,31.6814,-7.6706,-125.2953,37.42280302652972,-122.16397452646922,29.2289,1.4751
2024-11-15T22:03:00.618Z,0.5558,0.7068,1.7162,0.1639,-0.1834,-0.6564,31.7039,-7.6610,-125.6936,37.42280302652972,-122.16397452646922,29.2289,1.4751
2024-11-15T22:03:00.628Z,0.5558,0.7068,1.7162,0.0679,-0.0776,-0.6361,31.4690,-7.6201,-125.3214,37.42280302652972,-122.16397452646922,29.2289,1.4751
2024-11-15T22:03:00.638Z,-0.1376,0.8438,1.3765,-0.0632,0.0913,-0.5338,31.6205,-7.5267,-125.2549,37.42280302652972,-122.16397452646922,29.2289,1.4751
2024-11-15T22:03:00.650Z,-0.6599,0.6929,1.6269,-0.1711,0.2738,-0.3851,31.7666,-7.4253,-125.7456,37.42280302652972,-122.16397452646922,29.2289,1.4751
2024-11-15T22:03:00.658Z,-0.6599,0.6929,1.6269,-0.2119,0.3865,-0.2504,31.9770,-7.1141,-125.0304,37.42280302652972,-122.16397452646922,29.2289,1.4751
2024-11-15T22:03:00.669Z,-0.9157,0.4184,2.5901,-0.1966,0.3727,-0.1831,32.1147,-6.9822,-124.9380,37.42280302652972,-122.16397452646922,29.2289,1.4751
2024-11-15T22:03:00.678Z,-0.3423,0.7705,2.8434,-0.1966,0.3727,-0.1831,32.3647,-6.8121,-125.1061,37.42280302652972,-122.16397452646922,29.2289,1.4751
2024-11-15T22:03:00.688Z,-0.3423,0.7705,2.8434,-0.2128,0.1575,-0.1542,32.5475,-6.4713,-125.1085,37.42280302652972,-122.16397452646922,29.2289,1.4751
2024-11-15T22:03:00.699Z,0.1500,0.9345,2.4600,-0.3188,0.1285,-0.1371,32.4286,-6.4796,-124.9536,37.42280302652972,-122.16397452646922,29.2289,1.4751
2024-11-15T22:03:00.708Z,-0.1258,0.3157,2.2287,-0.4412,0.1503,-0.1130,32.4286,-6.4796,-124.9536,37.42280302652972,-122.16397452646922,29.2289,1.4751
2024-11-15T22:03:00.718Z,-0.1258,0.3157,2.2287,-0.4885,0.1299,-0.0912,32.5845,-6.0826,-125.0837,37.42280302652972,-122.16397452646922,29.2289,1.4751
2024-11-15T22:03:00.728Z,-0.5849,-1.0386,2.7427,-0.3964,0.0540,-0.0800,32.6834,-5.5723,-124.9124,37.42280302652972,-122.16397452646922,29.2289,1.4751
2024-11-15T22:03:00.738Z,-0.3992,-1.1651,3.2442,-0.1789,-0.0411,-0.0899,32.6834,-5.5723,-124.9124,37.42280302652972,-122.16397452646922,29.2289,1.4751
2024-11-15T22:03:00.749Z,-0.3992,-1.1651,3.2442,0.0701,-0.1368,-0.1245,32.6617,-5.3812,-124.6962,37.42280302652972,-122.16397452646922,29.2289,1.4751
2024-11-15T22:03:00.758Z,0.3058,-0.8422,2.9356,0.2433,-0.1758,-0.1702,32.6694,-5.3042,-124.7230,37.42280302652972,-122.16397452646922,29.2289,1.4751
2024-11-15T22:03:00.769Z,0.4960,-0.7798,2.0470,0.3018,-0.1501,-0.2024,32.4407,-5.5389,-125.0557,37.42280302652972,-122.16397452646922,29.2289,1.4751
2024-11-15T22:03:00.778Z,0.4960,-0.7798,2.0470,0.2505,-0.1008,-0.2153,32.3459,-5.6001,-124.9404,37.42280302652972,-122.16397452646922,29.2289,1.4751
2024-11-15T22:03:00.788Z,0.4654,-0.6189,0.0526,0.1242,-0.0752,-0.2075,32.3480,-5.5609,-124.5286,37.42280302652972,-122.16397452646922,29.2289,1.4751
2024-11-15T22:03:00.800Z,0.3019,-0.5502,-0.7499,-0.0255,-0.0998,-0.1688,32.2525,-5.6587,-124.7425,37.42280302652972,-122.16397452646922,29.2289,1.4751
2024-11-15T22:03:00.808Z,0.3019,-0.5502,-0.7499,-0.1702,-0.1685,-0.1161,32.1119,-5.5442,-124.5854,37.42280302652972,-122.16397452646922,29.2289,1.4751
2024-11-15T22:03:00.819Z,0.2525,-0.2022,-1.5624,-0.2974,-0.2476,-0.0622,32.0087,-5.3084,-124.7479,37.42280302652972,-122.16397452646922,29.2289,1.4751
2024-11-15T22:03:00.829Z,0.2846,-0.1367,-1.7096,-0.2974,-0.2476,-0.0622,31.8584,-5.0186,-124.8811,37.42280302652972,-122.16397452646922,29.2289,1.4751
2024-11-15T22:03:00.839Z,0.2846,-0.1367,-1.7096,-0.4404,-0.3514,-0.0014,31.6722,-4.9034,-125.0533,37.42280302652972,-122.16397452646922,29.2289,1.4751
2024-11-15T22:03:00.849Z,0.5276,-0.2827,-1.7191,-0.4534,-0.3510,-0.0128,31.5439,-4.6573,-124.8950,37.42280302652972,-122.16397452646922,29.2289,1.4751
2024-11-15T22:03:00.859Z,0.5276,-0.2827,-1.7191,-0.4257,-0.3108,-0.0530,31.4854,-4.4314,-124.9421,37.42280302652972,-122.16397452646922,29.2289,1.4751
2024-11-15T22:03:00.869Z,0.6514,-0.3548,-1.6810,-0.3656,-0.2343,-0.0939,31.3798,-4.1330,-125.1527,37.42280302652972,-122.16397452646922,29.2289,1.4751
2024-11-15T22:03:00.879Z,0.5402,-0.5177,-1.5622,-0.2844,-0.1464,-0.1170,31.1127,-4.0602,-124.8740,37.42280302652972,-122.16397452646922,29.2289,1.4751
2024-11-15T22:03:00.888Z,0.5402,-0.5177,-1.5622,-0.1882,-0.0562,-0.1211,30.9843,-3.7532,-125.2656,37.42280302652972,-122.16397452646922,29.2289,1.4751
2024-11-15T22:03:00.899Z,0.3734,-0.5082,-1.5546,-0.1152,0.0216,-0.1000,31.0244,-3.6847,-125.3488,37.42280302652972,-122.16397452646922,29.2289,1.4751
2024-11-15T22:03:00.909Z,-0.0465,-0.4734,-1.8035,-0.0682,0.0595,-0.0630,30.9810,-3.4918,-125.3089,37.42280302652972,-122.16397452646922,29.2289,1.4751
2024-11-15T22:03:00.919Z,-0.1192,-0.4133,-2.0089,-0.0258,0.0391,-0.0283,30.9508,-3.5637,-124.9447,37.42280302652972,-122.16397452646922,29.2289,1.4751
2024-11-15T22:03:00.929Z,-0.1192,-0.4133,-2.0089,-0.0032,-0.0238,-0.0039,31.1557,-3.4338,-125.1204,37.42280302652972,-122.16397452646922,29.2289,1.4751
2024-11-15T22:03:00.938Z,-0.0350,-0.2785,-2.3567,0.0032,-0.0990,-0.0011,31.0144,-3.3358,-125.1075,37.42280302652972,-122.16397452646922,29.2289,1.4751
2024-11-15T22:03:00.949Z,-0.0350,-0.2785,-2.3567,-0.0027,-0.1712,-0.0279,30.9402,-3.2260,-125.0448,37.42280302652972,-122.16397452646922,29.2289,1.4751
2024-11-15T22:03:00.958Z,0.1725,-0.2545,-2.4858,-0.0088,-0.2375,-0.0724,30.6642,-3.2743,-125.0235,37.42280302652972,-122.16397452646922,29.2289,1.4751
2024-11-15T22:03:00.969Z,0.6479,-0.0913,-2.5130,-0.0131,-0.2727,-0.1350,30.6564,-3.2749,-125.3235,37.42280302652972,-122.16397452646922,29.2289,1.4751
2024-11-15T22:03:00.979Z,0.7594,0.0527,-2.4297,-0.0131,-0.2727,-0.1350,30.5828,-3.1642,-125.1882,37.42280302652972,-122.16397452646922,29.2289,1.4751
2024-11-15T22:03:00.989Z,0.7594,0.0527,-2.4297,0.0172,-0.2432,-0.2240,30.3958,-2.9899,-125.1236,37.42280302652972,-122.16397452646922,29.2289,1.4751
2024-11-15T22:03:00.998Z,0.8238,0.4016,-1.9918,0.0172,-0.2432,-0.2240,30.3441,-2.7891,-125.3927,37.42280302652972,-122.16397452646922,29.2289,1.4751
2024-11-15T22:03:01.008Z,0.8238,0.4016,-1.9918,0.0497,-0.1650,-0.2391,30.2262,-2.8522,-125.3426,37.42280302652972,-122.16397452646922,29.2289,1.4751
2024-11-15T22:03:01.020Z,0.7997,0.5451,-1.7056,0.1071,0.1524,-0.2038,30.3698,-2.9154,-125.3366,37.42280302652972,-122.16397452646922,29.2289,1.4751
2024-11-15T22:03:01.029Z,0.3377,0.4568,-1.1073,0.1028,0.3720,-0.1237,30.2099,-3.0502,-125.1050,37.42280302652972,-122.16397452646922,29.2289,1.4751
2024-11-15T22:03:01.039Z,0.3377,0.4568,-1.1073,0.1028,0.3720,-0.1237,30.6538,-2.8033,-125.2151,37.42280302652972,-122.16397452646922,29.2289,1.4751
2024-11-15T22:03:01.049Z,-0.0906,0.3311,-0.6685,0.1017,0.5721,-0.0036,31.0812,-3.1014,-125.0293,37.42280719049228,-122.16399130061106,29.2119,1.4874
2024-11-15T22:03:01.059Z,-0.3775,0.2909,0.7613,0.1385,0.6961,0.1068,31.4129,-3.1429,-124.9142,37.42280719049228,-122.16399130061106,29.2119,1.4874
2024-11-15T22:03:01.068Z,-0.3775,0.2909,0.7613,0.2272,0.7118,0.1646,31.4129,-3.1429,-124.9142,37.42280719049228,-122.16399130061106,29.2119,1.4874
2024-11-15T22:03:01.078Z,-0.0652,0.2592,1.5080,0.3668,0.6583,0.1503,31.8477,-3.3930,-124.6364,37.42280719049228,-122.16399130061106,29.2119,1.4874
2024-11-15T22:03:01.089Z,0.5120,0.2214,2.4200,0.6123,0.4073,-0.0346,32.0350,-3.6148,-124.6832,37.42280719049228,-122.16399130061106,29.2119,1.4874
2024-11-15T22:03:01.101Z,0.6907,0.2930,2.2030,0.6123,0.4073,-0.0346,32.2441,-3.9727,-124.6204,37.42280719049228,-122.16399130061106,29.2119,1.4874
2024-11-15T22:03:01.108Z,0.6907,0.2930,2.2030,0.5999,0.2575,-0.1590,32.3391,-4.4367,-124.6301,37.42280719049228,-122.16399130061106,29.2119,1.4874
2024-11-15T22:03:01.118Z,0.2597,0.4306,1.1270,0.4563,0.1602,-0.2411,32.2648,-4.3599,-124.5651,37.42280719049228,-122.16399130061106,29.2119,1.4874
2024-11-15T22:03:01.128Z,0.2597,0.4306,1.1270,0.2248,0.1209,-0.2280,32.4631,-4.4025,-124.6505,37.42280719049228,-122.16399130061106,29.2119,1.4874
2024-11-15T22:03:01.138Z,-0.4122,0.3981,0.8650,-0.0492,0.1416,-0.1162,32.7023,-4.2179,-124.5249,37.42280719049228,-122.16399130061106,29.2119,1.4874
2024-11-15T22:03:01.148Z,-1.5800,-0.0350,1.6827,-0.2800,0.1908,0.0626,32.5654,-4.0223,-124.6668,37.42280719049228,-122.16399130061106,29.2119,1.4874
2024-11-15T22:03:01.158Z,-1.5800,-0.0350,1.6827,-0.3856,0.2106,0.2288,32.7332,-3.9724,-124.4031,37.42280719049228,-122.16399130061106,29.2119,1.4874
2024-11-15T22:03:01.168Z,-1.5193,-0.2681,2.6123,-0.3312,0.1471,0.3092,32.5690,-3.8941,-124.6501,37.42280719049228,-122.16399130061106,29.2119,1.4874
2024-11-15T22:03:01.178Z,-0.0427,0.1227,4.0474,-0.1534,0.0420,0.2902,32.7419,-3.9065,-124.4791,37.42280719049228,-122.16399130061106,29.2119,1.4874
2024-11-15T22:03:01.188Z,-0.0427,0.1227,4.0474,0.0508,0.0016,0.2274,32.6741,-4.0522,-124.5496,37.42280719049228,-122.16399130061106,29.2119,1.4874
2024-11-15T22:03:01.200Z,0.4752,0.3326,4.0529,0.1775,0.0239,0.1646,32.5362,-4.3331,-124.5773,37.42280719049228,-122.16399130061106,29.2119,1.4874
2024-11-15T22:03:01.208Z,0.1512,-0.4791,2.5833,0.1885,0.0868,0.1016,32.6763,-4.2754,-124.0850,37.42280719049228,-122.16399130061106,29.2119,1.4874
2024-11-15T22:03:01.218Z,0.1512,-0.4791,2.5833,0.1185,0.1381,0.0609,32.8488,-4.4145,-124.3568,37.42280719049228,-122.16399130061106,29.2119,1.4874
2024-11-15T22:03:01.228Z,-0.1802,-0.7606,2.0228,0.0099,0.1352,0.0539,32.8849,-4.4042,-123.9266,37.42280719049228,-122.16399130061106,29.2119,1.4874
2024-11-15T22:03:01.238Z,-0.6870,-0.8809,1.7345,-0.0783,0.0707,0.0869,32.7818,-4.2644,-124.1674,37.42280719049228,-122.16399130061106,29.2119,1.4874
2024-11-15T22:03:01.251Z,-0.7758,-0.9030,1.7980,-0.1136,-0.0345,0.1373,32.7997,-4.2781,-124.1773,37.42280719049228,-122.16399130061106,29.2119,1.4874
2024-11-15T22:03:01.258Z,-0.7758,-0.9030,1.7980,-0.1201,-0.1229,0.1716,32.5886,-4.2118,-124.6904,37.42280719049228,-122.16399130061106,29.2119,1.4874
2024-11-15T22:03:01.268Z,-0.5109,-0.9793,1.5229,-0.1083,-0.1778,0.1768,32.6004,-4.1705,-124.2631,37.42280719049228,-122.16399130061106,29.2119,1.4874
2024-11-15T22:03:01.278Z,-0.5109,-0.9793,1.5229,-0.0740,-0.2031,0.1495,32.4801,-4.3704,-124.3389,37.42280719049228,-122.16399130061106,29.2119,1.4874
2024-11-15T22:03:01.288Z,-0.3110,-0.9715,1.2482,-0.0324,-0.1999,0.1127,32.4211,-4.1612,-124.3211,37.42280719049228,-122.16399130061106,29.2119,1.4874
2024-11-15T22:03:01.300Z,-0.1558,-0.7639,0.5876,0.0087,-0.1734,0.0713,32.2742,-4.2417,-124.6320,37.42280719049228,-122.16399130061106,29.2119,1.4874
2024-11-15T22:03:01.308Z,-0.1558,-0.7639,0.5876,0.0165,-0.1178,0.0529,31.9834,-4.2875,-124.8262,37.42280719049228,-122.16399130061106,29.2119,1.4874
2024-11-15T22:03:01.318Z,-0.2353,-0.6323,0.0767,-0.0214,-0.0608,0.0724,32.0970,-4.2216,-124.4739,37.42280719049228,-122.16399130061106,29.2119,1.4874
2024-11-15T22:03:01.328Z,-0.6520,-0.5338,-1.1080,-0.1154,-0.0422,0.1240,32.0548,-4.0432,-124.9607,37.42280719049228,-122.16399130061106,29.2119,1.4874
2024-11-15T22:03:01.338Z,-0.6520,-0.5338,-1.1080,-0.2482,-0.0709,0.1890,31.8714,-3.8911,-124.7656,37.42280719049228,-122.16399130061106,29.2119,1.4874
2024-11-15T22:03:01.350Z,-0.7580,-0.5930,-1.5518,-0.3787,-0.1152,0.2491,31.8117,-3.8545,-124.9264,37.42280719049228,-122.16399130061106,29.2119,1.4874
2024-11-15T22:03:01.358Z,-0.4399,-0.6699,-1.7006,-0.4579,-0.1872,0.2759,31.5621,-3.6357,-125.0631,37.42280719049228,-122.16399130061106,29.2119,1.4874
2024-11-15T22:03:01.368Z,-0.4399,-0.6699,-1.7006,-0.4706,-0.2736,0.2705,31.5621,-3.6357,-125.0631,37.42280719049228,-122.16399130061106,29.2119,1.4874
2024-11-15T22:03:01.379Z,-0.1729,-0.5850,-1.6882,-0.4251,-0.3663,0.2332,31.1948,-3.3672,-125.1497,37.42280719049228,-122.16399130061106,29.2119,1.4874
2024-11-15T22:03:01.389Z,0.2768,-0.4013,-2.0795,-0.3425,-0.4543,0.1809,31.1046,-3.3377,-125.0858,37.42280719049228,-122.16399130061106,29.2119,1.4874
2024-11-15T22:03:01.400Z,0.2768,-0.4013,-2.0795,-0.2557,-0.5235,0.1241,31.1046,-3.3377,-125.0858,37.42280719049228,-122.16399130061106,29.2119,1.4874
2024-11-15T22:03:01.408Z,0.3740,-0.2425,-2.4979,-0.1814,-0.5878,0.0716,30.7856,-3.1834,-125.2548,37.42280719049228,-122.16399130061106,29.2119,1.4874
2024-11-15T22:03:01.418Z,0.5029,0.1145,-3.6356,-0.1485,-0.6561,0.0322,30.3240,-3.2498,-125.6081,37.42280719049228,-122.16399130061106,29.2119,1.4874
2024-11-15T22:03:01.428Z,0.5029,0.1145,-3.6356,-0.1740,-0.7433,0.0041,29.9638,-3.0384,-125.5603,37.42280719049228,-122.16399130061106,29.2119,1.4874
2024-11-15T22:03:01.438Z,0.4838,0.2819,-4.2825,-0.2562,-0.8213,-0.0143,29.5217,-2.9082,-125.7746,37.42280719049228,-122.16399130061106,29.2119,1.4874
2024-11-15T22:03:01.449Z,0.5295,0.2543,-4.7855,-0.3687,-0.8686,-0.0248,29.1717,-2.7409,-125.7788,37.42280719049228,-122.16399130061106,29.2119,1.4874
2024-11-15T22:03:01.458Z,0.5295,0.2543,-4.7855,-0.4670,-0.8435,-0.0369,28.7317,-2.3125,-126.3638,37.42280719049228,-122.16399130061106,29.2119,1.4874
2024-11-15T22:03:01.468Z,0.4779,0.1853,-4.3847,-0.5010,-0.7340,-0.0408,28.0352,-2.0253,-126.5053,37.42280719049228,-122.16399130061106,29.2119,1.4874
2024-11-15T22:03:01.478Z,0.5030,0.1976,-2.8824,-0.4621,-0.5464,-0.0457,27.7701,-1.7677,-126.4418,37.42280719049228,-122.16399130061106,29.2119,1.4874
2024-11-15T22:03:01.488Z,0.5030,0.1976,-2.8824,-0.3645,-0.2865,-0.0468,27.6910,-1.7291,-126.9585,37.42280719049228,-122.16399130061106,29.2119,1.4874
2024-11-15T22:03:01.500Z,0.5017,0.2735,-2.1000,-0.2384,0.0162,-0.0395,27.5901,-1.3858,-126.5720,37.42280719049228,-122.16399130061106,29.2119,1.4874
2024-11-15T22:03:01.508Z,0.1463,0.3491,-1.0678,-0.1265,0.3226,-0.0153,27.6870,-1.2857,-126.8273,37.42280719049228,-122.16399130061106,29.2119,1.4874
2024-11-15T22:03:01.518Z,0.1463,0.3491,-1.0678,-0.0655,0.5687,0.0275,28.1361,-1.3199,-126.6741,37.42280719049228,-122.16399130061106,29.2119,1.4874
2024-11-15T22:03:01.528Z,-0.0608,0.2499,-0.7758,-0.0381,0.7400,0.0587,28.5491,-1.3059,-126.6684,37.42280719049228,-122.16399130061106,29.2119,1.4874
2024-11-15T22:03:01.538Z,-0.2931,-0.0672,0.3017,-0.0038,0.7928,0.0655,28.7751,-1.1194,-126.2942,37.42280719049228,-122.16399130061106,29.2119,1.4874
2024-11-15T22:03:01.548Z,-0.2931,-0.0672,0.3017,0.0806,0.7017,0.0355,29.3325,-1.0258,-126.0143,37.42280719049228,-122.16399130061106,29.2119,1.4874
2024-11-15T22:03:01.558Z,-0.1833,-0.1085,0.9240,0.2102,0.4856,-0.0346,29.2058,-1.3656,-126.2058,37.42280719049228,-122.16399130061106,29.2119,1.4874
2024-11-15T22:03:01.568Z,0.0477,-0.0020,1.3877,0.3304,0.2033,-0.1447,29.2513,-1.6516,-126.1152,37.42280719049228,-122.16399130061106,29.2119,1.4874
2024-11-15T22:03:01.578Z,0.0477,-0.0020,1.3877,0.3990,-0.0561,-0.2722,29.2232,-1.5654,-125.9657,37.42280719049228,-122.16399130061106,29.2119,1.4874
2024-11-15T22:03:01.588Z,0.1504,0.1113,1.2418,0.3849,-0.2282,-0.3865,29.1054,-1.7875,-126.3814,37.42280719049228,-122.16399130061106,29.2119,1.4874
2024-11-15T22:03:01.600Z,0.1614,0.5651,0.9416,0.3036,-0.2887,-0.4691,28.8360,-1.9719,-126.6421,37.42280719049228,-122.16399130061106,29.2119,1.4874
2024-11-15T22:03:01.608Z,0.1614,0.5651,0.9416,0.1872,-0.2717,-0.5058,28.7007,-1.8448,-126.3998,37.42280719049228,-122.16399130061106,29.2119,1.4874
2024-11-15T22:03:01.618Z,-0.1018,0.8601,0.9976,0.0434,-0.1911,-0.4587,28.6469,-1.6813,-126.6422,37.42280719049228,-122.16399130061106,29.2119,1.4874
2024-11-15T22:03:01.628Z,-1.0689,0.9390,1.6610,-0.1072,-0.0503,-0.3235,28.4690,-1.5298,-126.4615,37.42280719049228,-122.16399130061106,29.2119,1.4874
2024-11-15T22:03:01.638Z,-1.0689,0.9390,1.6610,-0.2044,0.1283,-0.1375,28.5766,-1.2999,-126.2646,37.42280719049228,-122.16399130061106,29.2119,1.4874
2024-11-15T22:03:01.649Z,-1.3945,0.6752,2.4273,-0.2034,0.2829,0.0354,28.7942,-1.3333,-126.6284,37.42280719049228,-122.16399130061106,29.2119,1.4874
2024-11-15T22:03:01.658Z,-1.0313,0.0260,3.6936,-0.0953,0.3136,0.1360,28.6542,-1.4491,-126.1533,37.42280719049228,-122.16399130061106,29.2119,1.4874
2024-11-15T22:03:01.669Z,-1.0313,0.0260,3.6936,0.0803,0.2234,0.1167,28.6422,-1.4852,-126.3507,37.42280719049228,-122.16399130061106,29.2119,1.4874
2024-11-15T22:03:01.678Z,-0.2280,0.0825,3.8064,0.2386,0.0688,0.0035,28.7678,-1.4195,-126.2852,37.42280719049228,-122.16399130061106,29.2119,1.4874
2024-11-15T22:03:01.689Z,1.1198,0.7929,2.5460,0.2863,-0.1094,-0.1617,28.5491,-1.4425,-126.5575,37.42280719049228,-122.16399130061106,29.2119,1.4874
2024-11-15T22:03:01.700Z,1.1198,0.7929,2.5460,0.1738,-0.2380,-0.2971,28.4499,-1.2517,-126.5184,37.42280719049228,-122.16399130061106,29.2119,1.4874
2024-11-15T22:03:01.708Z,0.9486,0.6486,1.7004,-0.0252,-0.2953,-0.3741,28.4499,-1.2517,-126.5184,37.42280719049228,-122.16399130061106,29.2119,1.4874
2024-11-15T22:03:01.718Z,0.2995,-0.1577,1.5558,-0.2063,-0.2826,-0.3989,28.3360,-1.3295,-126.5308,37.42280719049228,-122.16399130061106,29.2119,1.4874
2024-11-15T22:03:01.728Z,0.2995,-0.1577,1.5558,-0.2626,-0.2251,-0.3742,28.0619,-1.0268,-126.4919,37.42280719049228,-122.16399130061106,29.2119,1.4874
2024-11-15T22:03:01.738Z,0.0961,-0.2932,2.3138,-0.1532,-0.1339,-0.2943,27.9808,-0.9573,-126.8057,37.42280719049228,-122.16399130061106,29.2119,1.4874
2024-11-15T22:03:01.748Z,-0.1263,-0.8553,3.1516,0.0435,-0.0076,-0.1971,27.8715,-0.8761,-126.7434,37.42280719049228,-122.16399130061106,29.2119,1.4874
2024-11-15T22:03:01.758Z,-0.1263,-0.8553,3.1516,0.2626,0.1680,-0.0984,27.5681,-0.7389,-126.7442,37.42280719049228,-122.16399130061106,29.2119,1.4874
2024-11-15T22:03:01.768Z,-0.0564,-1.1326,2.9311,0.4522,0.3702,-0.0226,27.8817,-1.0043,-126.6171,37.42280719049228,-122.16399130061106,29.2119,1.4874
2024-11-15T22:03:01.778Z,0.2471,-1.1274,1.5445,0.5754,0.5378,0.0205,27.9275,-1.0954,-126.3475,37.42280719049228,-122.16399130061106,29.2119,1.4874
2024-11-15T22:03:01.788Z,0.2471,-1.1274,1.5445,0.6118,0.6385,0.0496,28.3451,-1.4659,-126.1733,37.42280719049228,-122.16399130061106,29.2119,1.4874
2024-11-15T22:03:01.798Z,0.2573,-0.9715,0.6425,0.5485,0.6720,0.0849,28.4817,-1.8113,-126.2173,37.42280719049228,-122.16399130061106,29.2119,1.4874
2024-11-15T22:03:01.808Z,-0.1123,-0.4119,-1.0252,0.4042,0.6466,0.1380,28.7917,-1.9895,-126.0117,37.42280719049228,-122.16399130061106,29.2119,1.4874
2024-11-15T22:03:01.818Z,-0.1123,-0.4119,-1.0252,0.2065,0.5508,0.1983,29.0892,-2.2625,-125.8224,37.42280719049228,-122.16399130061106,29.2119,1.4874
2024-11-15T22:03:01.828Z,-0.2599,-0.2250,-1.6301,-0.0072,0.3977,0.2538,29.2626,-2.3049,-125.6310,37.42280719049228,-122.16399130061106,29.2119,1.4874
2024-11-15T22:03:01.838Z,-0.3956,-0.1405,-2.1955,-0.2094,0.1930,0.2816,29.4327,-2.3318,-126.0718,37.42280719049228,-122.16399130061106,29.2119,1.4874
2024-11-15T22:03:01.849Z,-0.3956,-0.1405,-2.1955,-0.3756,-0.0470,0.2815,29.3388,-2.0606,-125.5847,37.42280719049228,-122.16399130061106,29.2119,1.4874
2024-11-15T22:03:01.858Z,-0.3070,-0.1524,-2.2743,-0.4928,-0.2883,0.2486,29.2699,-1.9720,-125.6655,37.42280719049228,-122.16399130061106,29.2119,1.4874
2024-11-15T22:03:01.868Z,-0.1276,-0.2765,-2.2742,-0.5586,-0.5010,0.2013,28.7398,-1.5854,-125.9171,37.42280719049228,-122.16399130061106,29.2119,1.4874
2024-11-15T22:03:01.878Z,-0.1276,-0.2765,-2.2742,-0.5731,-0.6456,0.1549,28.5825,-1.4168,-126.0667,37.42280719049228,-122.16399130061106,29.2119,1.4874
2024-11-15T22:03:01.888Z,-0.0705,-0.2733,-2.2023,-0.5254,-0.7049,0.1153,27.9277,-1.0859,-126.2719,37.42280719049228,-122.16399130061106,29.2119,1.4874
2024-11-15T22:03:01.900Z,0.1591,-0.2421,-2.0679,-0.4314,-0.6846,0.0772,27.4334,-0.8342,-126.4856,37.42280719049228,-122.16399130061106,29.2119,1.4874
2024-11-15T22:03:01.908Z,0.1591,-0.2421,-2.0679,-0.3092,-0.5800,0.0490,27.3842,-0.5928,-126.4638,37.42280719049228,-122.16399130061106,29.2119,1.4874
2024-11-15T22:03:01.918Z,0.1920,-0.1332,-2.1154,-0.1892,-0.3996,0.0273,26.8124,-0.6664,-126.5622,37.42280719049228,-122.16399130061106,29.2119,1.4874
2024-11-15T22:03:01.928Z,0.3649,0.1212,-2.5485,-0.1064,-0.1810,0.0198,26.9180,-0.4294,-126.7327,37.42280719049228,-122.16399130061106,29.2119,1.4874
2024-11-15T22:03:01.938Z,0.3649,0.1212,-2.5485,-0.0682,0.0222,0.0199,26.7001,-0.4598,-126.6724,37.42280719049228,-122.16399130061106,29.2119,1.4874
2024-11-15T22:03:01.948Z,0.4059,0.3138,-2.8062,-0.0626,0.1825,0.0237,26.6808,-0.3094,-126.5208,37.42280719049228,-122.16399130061106,29.2119,1.4874
2024-11-15T22:03:01.958Z,0.4059,0.3138,-2.8062,-0.0502,0.3088,0.0258,26.8039,-0.4103,-126.5291,37.42280719049228,-122.16399130061106,29.2119,1.4874
2024-11-15T22:03:01.968Z,0.5164,0.4499,-2.4244,-0.0014,0.4016,0.0075,27.1652,-0.4545,-126.3848,37.42280719049228,-122.16399130061106,29.2119,1.4874
2024-11-15T22:03:01.978Z,0.7009,0.4531,-1.8607,0.0947,0.4688,-0.0411,27.5736,-0.4667,-126.0415,37.42280719049228,-122.16399130061106,29.2119,1.4874
2024-11-15T22:03:01.988Z,0.7009,0.4531,-1.8607,0.2083,0.4953,-0.1067,27.5058,-0.6431,-126.1931,37.42280719049228,-122.16399130061106,29.2119,1.4874
2024-11-15T22:03:01.998Z,0.8544,0.3484,-0.9618,0.3009,0.4844,-0.1817,27.5058,-0.6431,-126.1931,37.42280719049228,-122.16399130061106,29.2119,1.4874
2024-11-15T22:03:02.008Z,0.8430,0.3483,-0.8783,0.3334,0.4453,-0.2355,27.8448,-0.8128,-126.1540,37.42280719049228,-122.16399130061106,29.2119,1.4874
2024-11-15T22:03:02.020Z,0.1186,0.4541,-1.0421,0.2910,0.3893,-0.2259,27.9509,-0.8622,-126.6517,37.42280719049228,-122.16399130061106,29.2119,1.4874
2024-11-15T22:03:02.028Z,0.1186,0.4541,-1.0421,0.1897,0.3161,-0.1606,28.1904,-0.9231,-126.1006,37.42280719049228,-122.16399130061106,29.2119,1.4874
2024-11-15T22:03:02.039Z,-0.2161,0.5066,-0.9922,0.0613,0.2453,-0.0628,28.2650,-0.7799,-126.3857,37.42280719049228,-122.16399130061106,29.2119,1.4874
2024-11-15T22:03:02.049Z,-0.2161,0.5066,-0.9922,-0.0646,0.2298,0.0595,28.5044,-0.8037,-126.4263,37.42281174687806,-122.16400767656769,29.2051,1.4949
2024-11-15T22:03:02.059Z,-0.6578,0.2965,-0.0760,-0.1420,0.2679,0.1654,28.3761,-0.9908,-126.4530,37.42281174687806,-122.16400767656769,29.2051,1.4949
2024-11-15T22:03:02.069Z,-0.5429,0.0630,0.8673,-0.1242,0.2941,0.2190,28.5858,-0.9183,-126.3441,37.42281174687806,-122.16400767656769,29.2051,1.4949
2024-11-15T22:03:02.078Z,-0.5429,0.0630,0.8673,-0.0252,0.2699,0.1948,28.5718,-0.9491,-126.0484,37.42281174687806,-122.16400767656769,29.2051,1.4949
2024-11-15T22:03:02.089Z,0.2003,-0.1071,2.6848,0.0998,0.1922,0.1073,28.6352,-1.0316,-126.1546,37.42281174687806,-122.16400767656769,29.2051,1.4949
2024-11-15T22:03:02.099Z,0.5326,-0.1365,3.0131,0.1680,0.0935,-0.0092,28.7476,-0.9323,-126.3033,37.42281174687806,-122.16400767656769,29.2051,1.4949
2024-11-15T22:03:02.109Z,0.5326,-0.1365,3.0131,0.1240,0.0154,-0.1025,28.7646,-1.1719,-126.6397,37.42281174687806,-122.16400767656769,29.2051,1.4949
2024-11-15T22:03:02.118Z,0.4256,-0.2837,2.4036,-0.0119,-0.0438,-0.1467,28.5829,-1.0320,-126.4317,37.42281174687806,-122.16400767656769,29.2051,1.4949
2024-11-15T22:03:02.128Z,0.0215,-0.4129,2.0976,-0.1852,-0.1193,-0.1301,28.4618,-0.8993,-126.2996,37.42281174687806,-122.16400767656769,29.2051,1.4949
2024-11-15T22:03:02.138Z,0.0215,-0.4129,2.0976,-0.3348,-0.2422,-0.0727,28.3784,-0.7219,-126.3787,37.42281174687806,-122.16400767656769,29.2051,1.4949
2024-11-15T22:03:02.148Z,-0.4404,-0.3443,2.1383,-0.4260,-0.3780,-0.0061,28.1091,-0.4251,-126.7606,37.42281174687806,-122.16400767656769,29.2051,1.4949
2024-11-15T22:03:02.158Z,-0.3281,-0.0927,2.4140,-0.4627,-0.4431,0.0712,27.9178,-0.3703,-126.7510,37.42281174687806,-122.16400767656769,29.2051,1.4949
2024-11-15T22:03:02.168Z,-0.3281,-0.0927,2.4140,-0.4568,-0.4163,0.1513,27.5033,-0.2208,-126.9541,37.42281174687806,-122.16400767656769,29.2051,1.4949
2024-11-15T22:03:02.179Z,-0.4504,-0.7436,2.7553,-0.3973,-0.3268,0.2225,27.2401,0.0351,-126.9104,37.42281174687806,-122.16400767656769,29.2051,1.4949
2024-11-15T22:03:02.188Z,-0.5940,-1.2381,2.9524,-0.2780,-0.2327,0.2834,27.1978,0.0891,-127.1873,37.42281174687806,-122.16400767656769,29.2051,1.4949
2024-11-15T22:03:02.201Z,-0.7035,-1.7603,2.8910,-0.1266,-0.1627,0.3463,26.9519,0.1929,-126.9606,37.42281174687806,-122.16400767656769,29.2051,1.4949
2024-11-15T22:03:02.208Z,-0.7035,-1.7603,2.8910,0.0217,-0.1234,0.4032,26.8715,0.1198,-127.3565,37.42281174687806,-122.16400767656769,29.2051,1.4949
2024-11-15T22:03:02.218Z,-0.6435,-1.6886,2.4336,0.1343,-0.0981,0.4346,26.8064,-0.0617,-127.0561,37.42281174687806,-122.16400767656769,29.2051,1.4949
2024-11-15T22:03:02.228Z,-0.6435,-1.6886,2.4336,0.1867,-0.0583,0.4289,26.6649,-0.2424,-126.9543,37.42281174687806,-122.16400767656769,29.2051,1.4949
