time,ax,ay,az,wx,wy,wz,Bx,By,Bz,latitude,longitude,altitude,speed
2024-11-15T22:01:13.696Z,0.1726,0.3932,-0.5260,-0.0312,-0.0870,-0.1484,35.2056,-7.6805,-127.3348,37.42278651478471,-122.16389089625362,29.1421,0.0000
2024-11-15T22:01:13.706Z,0.3462,0.1720,0.0120,-0.0420,-0.1637,-0.2980,35.3773,-7.4293,-127.0340,37.42278651478471,-122.16389089625362,29.1421,0.0000
2024-11-15T22:01:13.716Z,0.5014,0.0326,0.2962,-0.0168,-0.1484,-0.3267,35.0028,-7.6405,-127.1852,37.42278651478471,-122.16389089625362,29.1421,0.0000
2024-11-15T22:01:13.726Z,0.5014,0.0326,0.2962,-0.0017,-0.1013,-0.3023,35.0185,-7.3589,-127.3867,37.42278651478471,-122.16389089625362,29.1421,0.0000
2024-11-15T22:01:13.736Z,0.3252,0.1501,0.2519,0.0053,-0.0417,-0.1968,35.0276,-7.0931,-127.2112,37.42278651478471,-122.16389089625362,29.1421,0.0000
2024-11-15T22:01:13.746Z,-0.1117,0.3890,0.0497,0.0552,-0.0683,-0.0427,35.0293,-7.0137,-127.1735,37.42278651478471,-122.16389089625362,29.1421,0.0000
2024-11-15T22:01:13.756Z,-0.1117,0.3890,0.0497,0.1111,-0.0889,0.0248,34.8404,-7.1924,-127.3920,37.42278651478471,-122.16389089625362,29.1421,0.0000
2024-11-15T22:01:13.766Z,-0.2442,0.7354,0.1535,0.1483,-0.0753,0.0042,34.9590,-7.1200,-127.0474,37.42278651478471,-122.16389089625362,29.1421,0.0000
2024-11-15T22:01:13.776Z,0.1982,0.8661,0.0101,0.1694,-0.0479,-0.0661,34.6719,-7.2375,-127.2712,37.42278651478471,-122.16389089625362,29.1421,0.0000
2024-11-15T22:01:13.786Z,0.1982,0.8661,0.0101,0.1683,-0.0182,-0.1354,34.7997,-7.3733,-126.9376,37.42278651478471,-122.16389089625362,29.1421,0.0000
2024-11-15T22:01:13.796Z,0.3323,0.9440,-0.2897,0.1489,0.0004,-0.1802,34.7795,-7.4651,-127.0088,37.42278651478471,-122.16389089625362,29.1421,0.0000
2024-11-15T22:01:13.807Z,0.0639,0.9657,-0.4195,0.1088,0.0046,-0.1815,34.7398,-7.3081,-126.9354,37.42278651478471,-122.16389089625362,29.1421,0.0000
2024-11-15T22:01:13.816Z,0.0639,0.9657,-0.4195,0.0651,-0.0104,-0.1405,34.6621,-7.4824,-127.0159,37.42278651478471,-122.16389089625362,29.1421,0.0000
2024-11-15T22:01:13.826Z,-0.4337,0.9728,-0.4978,0.0291,-0.0525,-0.0865,34.7550,-7.5008,-126.9873,37.42278651478471,-122.16389089625362,29.1421,0.0000
2024-11-15T22:01:13.837Z,-0.5052,0.9941,-0.5101,-0.0006,-0.0892,-0.0370,34.5972,-7.3863,-126.7857,37.42278651478471,-122.16389089625362,29.1421,0.0000
2024-11-15T22:01:13.846Z,-0.5052,0.9941,-0.5101,-0.0253,-0.1207,-0.0048,34.7157,-7.3722,-126.7262,37.42278651478471,-122.16389089625362,29.1421,0.0000
2024-11-15T22:01:13.856Z,-0.2733,1.0486,-0.6318,-0.0564,-0.1539,0.0130,34.5105,-7.5625,-127.1963,37.42278651478471,-122.16389089625362,29.1421,0.0000
2024-11-15T22:01:13.866Z,-0.2733,1.0486,-0.6318,-0.0904,-0.1763,0.0206,34.4822,-7.3031,-127.0539,37.42278651478471,-122.16389089625362,29.1421,0.0000
2024-11-15T22:01:13.876Z,-0.0817,1.1251,-0.7607,-0.1371,-0.1843,0.0209,34.7190,-7.1217,-127.2136,37.42278651478471,-122.16389089625362,29.1421,0.0000
2024-11-15T22:01:13.887Z,0.1906,1.2404,-0.9559,-0.1870,-0.1728,0.0224,34.4499,-7.1748,-127.5170,37.42278651478471,-122.16389089625362,29.1421,0.0000
2024-11-15T22:01:13.896Z,0.1906,1.2404,-0.9559,-0.2246,-0.1594,0.0183,34.2213,-7.0088,-127.5282,37.42278651478471,-122.16389089625362,29.1421,0.0000
2024-11-15T22:01:13.906Z,0.2710,1.3018,-0.9383,-0.2423,-0.1506,0.0066,34.1959,-6.9308,-127.6172,37.42278651478471,-122.16389089625362,29.1421,0.0000
2024-11-15T22:01:13.915Z,0.4253,1.4616,-0.7823,-0.2444,-0.1436,-0.0165,34.1248,-6.8105,-127.7575,37.42278651478471,-122.16389089625362,29.1421,0.0000
2024-11-15T22:01:13.926Z,0.4253,1.4616,-0.7823,-0.2369,-0.1288,-0.0416,34.2123,-6.7677,-127.7515,37.42278651478471,-122.16389089625362,29.1421,0.0000
2024-11-15T22:01:13.937Z,0.4815,1.5451,-0.6974,-0.2109,-0.1050,-0.0601,33.9614,-6.4998,-127.4250,37.42278651478471,-122.16389089625362,29.1421,0.0000
2024-11-15T22:01:13.946Z,0.4828,1.6269,-0.4834,-0.1913,-0.0611,-0.0604,33.9851,-6.2846,-127.4957,37.42278651478471,-122.16389089625362,29.1421,0.0000
2024-11-15T22:01:13.956Z,0.4828,1.6269,-0.4834,-0.1992,-0.0030,-0.0359,33.8858,-6.1297,-127.6154,37.42278651478471,-122.16389089625362,29.1421,0.0000
2024-11-15T22:01:13.966Z,0.2904,1.6352,-0.4896,-0.2318,0.0435,0.0048,33.8768,-6.1094,-127.6646,37.42278651478471,-122.16389089625362,29.1421,0.0000
2024-11-15T22:01:13.976Z,-0.0376,1.5318,-0.5580,-0.2636,0.0625,0.0453,33.9711,-5.8066,-127.3776,37.42278651478471,-122.16389089625362,29.1421,0.0000
2024-11-15T22:01:13.989Z,-0.0807,1.5434,-0.5267,-0.2891,0.0585,0.0681,33.8532,-5.6549,-127.4424,37.42278651478471,-122.16389089625362,29.1421,0.0000
2024-11-15T22:01:13.997Z,-0.0807,1.5434,-0.5267,-0.2924,0.0260,0.0679,33.9587,-5.5705,-127.7722,37.42278651478471,-122.16389089625362,29.1421,0.0000
2024-11-15T22:01:14.006Z,0.1090,1.4479,-0.3339,-0.2716,-0.0204,0.0354,33.9587,-5.5705,-127.7722,37.42278651478471,-122.16389089625362,29.1421,0.0000
2024-11-15T22:01:14.016Z,0.1090,1.4479,-0.3339,-0.2357,-0.0663,-0.0176,34.0175,-5.4853,-127.4093,37.42278651478471,-122.16389089625362,29.1421,0.0000
2024-11-15T22:01:14.026Z,0.2432,1.4515,-0.2447,-0.1919,-0.0857,-0.0694,33.7672,-5.1937,-127.5642,37.42278651478471,-122.16389089625362,29.1421,0.0000
2024-11-15T22:01:14.037Z,0.4764,1.4819,-0.1669,-0.1500,-0.0789,-0.1150,33.7471,-4.9736,-127.4312,37.42278651478471,-122.16389089625362,29.1421,0.0000
2024-11-15T22:01:14.046Z,0.4764,1.4819,-0.1669,-0.1148,-0.0475,-0.1285,33.8992,-5.1296,-127.9235,37.42278651478471,-122.16389089625362,29.1421,0.0000
2024-11-15T22:01:14.056Z,0.4310,1.5169,-0.2418,-0.0875,-0.0104,-0.1061,33.7430,-4.8897,-127.6009,37.42278651478471,-122.16389089625362,29.1421,0.0000
2024-11-15T22:01:14.066Z,0.1955,1.5676,-0.3453,-0.0666,0.0231,-0.0667,33.5389,-5.0421,-127.5714,37.42278651478471,-122.16389089625362,29.1421,0.0000
2024-11-15T22:01:14.076Z,0.1955,1.5676,-0.3453,-0.0537,0.0642,-0.0181,33.9514,-4.8521,-127.7797,37.42278651478471,-122.16389089625362,29.1421,0.0000
2024-11-15T22:01:14.087Z,0.1293,1.6588,-0.4276,-0.0563,0.0879,0.0260,33.8592,-4.9660,-127.5485,37.42278651478471,-122.16389089625362,29.1421,0.0000
2024-11-15T22:01:14.096Z,0.1842,1.8229,-0.5049,-0.0592,0.0894,0.0523,34.0252,-5.0298,-127.7727,37.42278651478471,-122.16389089625362,29.1421,0.0000
2024-11-15T22:01:14.106Z,0.1842,1.8229,-0.5049,-0.0667,0.0668,0.0669,34.1863,-4.8789,-127.3905,37.42278651478471,-122.16389089625362,29.1421,0.0000
2024-11-15T22:01:14.116Z,0.2444,1.9502,-0.4866,-0.0816,0.0413,0.0803,34.0128,-4.8423,-127.3519,37.42278651478471,-122.16389089625362,29.1421,0.0000
2024-11-15T22:01:14.126Z,0.2849,1.9945,-0.3772,-0.1029,0.0059,0.0921,34.1833,-4.9484,-127.1763,37.42278651478471,-122.16389089625362,29.1421,0.0000
2024-11-15T22:01:14.137Z,0.2849,1.9945,-0.3772,-0.1191,-0.0198,0.0916,33.9406,-4.8575,-127.4300,37.42278651478471,-122.16389089625362,29.1421,0.0000
2024-11-15T22:01:14.146Z,0.2792,1.9964,-0.3163,-0.1238,-0.0255,0.0931,34.0322,-5.0330,-127.1066,37.42278651478471,-122.16389089625362,29.1421,0.0000
2024-11-15T22:01:14.156Z,0.2621,1.9126,-0.0604,-0.1203,-0.0155,0.0996,33.9024,-4.9577,-127.3288,37.42278651478471,-122.16389089625362,29.1421,0.0000
2024-11-15T22:01:14.166Z,0.2621,1.9126,-0.0604,-0.1031,0.0080,0.1120,33.8976,-4.6750,-127.3404,37.42278651478471,-122.16389089625362,29.1421,0.0000
2024-11-15T22:01:14.176Z,0.2479,1.9068,0.0767,-0.0820,0.0347,0.1313,33.9504,-4.7240,-127.4229,37.42278651478471,-122.16389089625362,29.1421,0.0000
2024-11-15T22:01:14.187Z,0.1956,1.8840,0.2564,-0.0678,0.0603,0.1540,33.8107,-4.6156,-127.6311,37.42278651478471,-122.16389089625362,29.1421,0.0000
2024-11-15T22:01:14.196Z,0.1956,1.8840,0.2564,-0.0645,0.0767,0.1719,33.9903,-4.6889,-127.2273,37.42278651478471,-122.16389089625362,29.1421,0.0000
2024-11-15T22:01:14.206Z,0.1978,1.8580,0.2445,-0.0751,0.0736,0.1912,33.8823,-4.7782,-127.3277,37.42278651478471,-122.16389089625362,29.1421,0.0000
2024-11-15T22:01:14.216Z,0.1739,1.7657,0.2027,-0.0920,0.0379,0.1999,34.1375,-4.9625,-127.2964,37.42278651478471,-122.16389089625362,29.1421,0.0000
2024-11-15T22:01:14.226Z,0.1739,1.7657,0.2027,-0.1132,-0.0085,0.2042,34.0912,-4.7814,-127.2505,37.42278651478471,-122.16389089625362,29.1421,0.0000
2024-11-15T22:01:14.237Z,0.2026,1.7161,0.2199,-0.1420,-0.0383,0.1955,33.9337,-4.8890,-127.2845,37.42278651478471,-122.16389089625362,29.1421,0.0000
2024-11-15T22:01:14.246Z,0.3515,1.7051,0.4237,-0.1762,-0.0349,0.1786,33.8988,-4.7114,-127.2517,37.42278651478471,-122.16389089625362,29.1421,0.0000
2024-11-15T22:01:14.256Z,0.3515,1.7051,0.4237,-0.1924,-0.0165,0.1510,33.8990,-4.8216,-127.3585,37.42278651478471,-122.16389089625362,29.1421,0.0000
2024-11-15T22:01:14.265Z,0.3348,1.6106,0.6902,-0.1623,-0.0143,0.1103,33.8941,-4.8201,-127.4795,37.42278651478471,-122.16389089625362,29.1421,0.0000
2024-11-15T22:01:14.276Z,0.2906,1.4669,1.6339,-0.0960,-0.0526,0.0513,33.9474,-4.6444,-127.2850,37.42278651478471,-122.16389089625362,29.1421,0.0000
2024-11-15T22:01:14.287Z,0.2906,1.4669,1.6339,-0.0229,-0.1104,-0.0166,33.8140,-4.7178,-127.4860,37.42278651478471,-122.16389089625362,29.1421,0.0000
2024-11-15T22:01:14.296Z,0.2448,1.3681,1.9973,0.0224,-0.1645,-0.0711,33.6813,-4.6585,-127.8088,37.42278651478471,-122.16389089625362,29.1421,0.0000
2024-11-15T22:01:14.307Z,0.0379,1.2245,2.0310,0.0310,-0.1760,-0.0902,33.6629,-4.5630,-127.4414,37.42278651478471,-122.16389089625362,29.1421,0.0000
2024-11-15T22:01:14.316Z,0.0379,1.2245,2.0310,-0.0107,-0.1315,-0.0627,33.4633,-4.6805,-127.6413,37.42278651478471,-122.16389089625362,29.1421,0.0000
2024-11-15T22:01:14.326Z,-0.1256,1.1690,1.8328,-0.0739,-0.0330,0.0059,33.6056,-4.7332,-127.6052,37.42278651478471,-122.16389089625362,29.1421,0.0000
2024-11-15T22:01:14.337Z,-0.6187,0.9911,1.6603,-0.1350,0.0700,0.1112,33.6056,-4.7332,-127.6052,37.42278651478471,-122.16389089625362,29.1421,0.0000
2024-11-15T22:01:14.346Z,-0.6187,0.9911,1.6603,-0.1856,0.1488,0.2214,33.5799,-4.7967,-127.2955,37.42278651478471,-122.16389089625362,29.1421,0.0000
2024-11-15T22:01:14.356Z,-0.8351,0.8575,1.6724,-0.2175,0.1896,0.3195,33.4477,-4.5993,-127.2586,37.42278651478471,-122.16389089625362,29.1421,0.0000
2024-11-15T22:01:14.366Z,-1.0461,0.4892,1.6940,-0.2367,0.1883,0.3929,33.6029,-4.5204,-127.0307,37.42278651478471,-122.16389089625362,29.1421,0.0000
2024-11-15T22:01:14.376Z,-1.0461,0.4892,1.6940,-0.2533,0.1346,0.4401,33.5812,-4.5608,-127.5172,37.42278651478471,-122.16389089625362,29.1421,0.0000
2024-11-15T22:01:14.386Z,-1.1108,0.2157,1.6435,-0.2424,0.0342,0.4530,33.6649,-4.4815,-127.2956,37.42278651478471,-122.16389089625362,29.1421,0.0000
2024-11-15T22:01:14.396Z,-1.0116,-0.3851,1.5238,-0.1897,-0.0944,0.4133,33.8125,-4.5989,-127.3464,37.42278651478471,-122.16389089625362,29.1421,0.0000
2024-11-15T22:01:14.406Z,-1.0116,-0.3851,1.5238,-0.0967,-0.2234,0.3173,33.5539,-4.7075,-127.1273,37.42278651478471,-122.16389089625362,29.1421,0.0000
2024-11-15T22:01:14.416Z,-0.7502,-0.4422,1.4694,0.0162,-0.3034,0.1899,33.6125,-4.6333,-127.3915,37.42278651478471,-122.16389089625362,29.1421,0.0000
2024-11-15T22:01:14.426Z,-0.3038,-0.1885,1.0767,0.1353,-0.3059,0.0796,33.1712,-4.7400,-127.4522,37.42278651478471,-122.16389089625362,29.1421,0.0000
2024-11-15T22:01:14.437Z,-0.3038,-0.1885,1.0767,0.2169,-0.2197,0.0237,33.0872,-4.9528,-127.3643,37.42278651478471,-122.16389089625362,29.1421,0.0000
2024-11-15T22:01:14.446Z,-0.2700,-0.0151,0.7373,0.2505,-0.0758,0.0317,33.1163,-4.8636,-127.3433,37.42278651478471,-122.16389089625362,29.1421,0.0000
2024-11-15T22:01:14.456Z,-0.5871,0.3868,-0.0997,0.2267,0.0522,0.0986,32.8649,-5.1301,-127.5426,37.42278651478471,-122.16389089625362,29.1421,0.0000
2024-11-15T22:01:14.466Z,-0.5871,0.3868,-0.0997,0.1511,0.1151,0.1996,32.9856,-5.3078,-127.4102,37.42278651478471,-122.16389089625362,29.1421,0.0000
2024-11-15T22:01:14.476Z,-0.7877,0.5361,-0.5491,0.0147,0.1316,0.2921,33.0166,-5.3535,-127.5719,37.42278651478471,-122.16389089625362,29.1421,0.0000
2024-11-15T22:01:14.488Z,-1.0285,0.6296,-1.2902,-0.1404,0.1822,0.3790,33.0143,-5.3441,-127.3021,37.42278651478471,-122.16389089625362,29.1421,0.0000
2024-11-15T22:01:14.496Z,-1.0285,0.6296,-1.2902,-0.2759,0.2283,0.4679,33.4350,-5.4601,-126.9024,37.42278651478471,-122.16389089625362,29.1421,0.0000
2024-11-15T22:01:14.506Z,-1.0820,0.4715,-1.2501,-0.3573,0.2556,0.5294,33.3891,-5.4812,-126.8319,37.42278651478471,-122.16389089625362,29.1421,0.0000
2024-11-15T22:01:14.516Z,-0.9975,0.1083,-0.5036,-0.3622,0.2185,0.5531,33.6023,-5.6475,-126.7009,37.42278651478471,-122.16389089625362,29.1421,0.0000
2024-11-15T22:01:14.526Z,-0.9975,0.1083,-0.5036,-0.3014,0.1266,0.5221,33.6750,-5.3518,-126.7110,37.42278651478471,-122.16389089625362,29.1421,0.0000
2024-11-15T22:01:14.537Z,-0.7856,0.0313,-0.1276,-0.1936,-0.0033,0.4498,33.5736,-5.3415,-126.8236,37.42278651478471,-122.16389089625362,29.1421,0.0000
2024-11-15T22:01:14.546Z,-0.3051,-0.0536,0.0829,-0.0747,-0.1233,0.3572,33.5785,-5.5578,-126.8639,37.42278651478471,-122.16389089625362,29.1421,0.0000
2024-11-15T22:01:14.556Z,-0.3051,-0.0536,0.0829,0.0284,-0.2002,0.2670,33.3328,-5.5466,-127.1071,37.42278651478471,-122.16389089625362,29.1421,0.0000
2024-11-15T22:01:14.566Z,-0.0884,0.0064,-0.0783,0.0878,-0.2654,0.1929,33.2209,-5.6875,-127.3974,37.42278651478471,-122.16389089625362,29.1421,0.0000
2024-11-15T22:01:14.576Z,0.2088,0.2198,-1.0671,0.0732,-0.2916,0.1466,33.2625,-5.8733,-126.9589,37.42278651478471,-122.16389089625362,29.1421,0.0000
2024-11-15T22:01:14.587Z,0.2088,0.2198,-1.0671,0.0177,-0.2058,0.1325,32.9099,-5.9738,-127.1708,37.42278651478471,-122.16389089625362,29.1421,0.0000
2024-11-15T22:01:14.596Z,0.1490,0.2559,-1.6028,-0.0133,-0.0424,0.1514,32.8918,-5.8508,-127.0791,37.42278651478471,-122.16389089625362,29.1421,0.0000
2024-11-15T22:01:14.607Z,0.0405,0.2942,-1.5033,0.0282,0.1445,0.1879,32.8918,-5.8508,-127.0791,37.42278651478471,-122.16389089625362,29.1421,0.0000
2024-11-15T22:01:14.616Z,0.0405,0.2942,-1.5033,0.1367,0.2468,0.2085,33.0529,-5.7811,-127.0006,37.42278651478471,-122.16389089625362,29.1421,0.0000
2024-11-15T22:01:14.627Z,0.0620,0.3692,-1.1009,0.2570,0.2604,0.2081,33.4458,-6.3199,-126.5348,37.42278651478471,-122.16389089625362,29.1421,0.0000
2024-11-15T22:01:14.639Z,0.0456,0.4122,-1.0733,0.3528,0.2109,0.1890,33.4458,-6.3199,-126.5348,37.42278651478471,-122.16389089625362,29.1421,0.0000
2024-11-15T22:01:14.646Z,0.0456,0.4122,-1.0733,0.3970,0.1363,0.1489,33.5598,-6.4995,-126.7749,37.42278651478471,-122.16389089625362,29.1421,0.0000
2024-11-15T22:01:14.656Z,0.0501,0.2920,-1.3837,0.3869,0.0829,0.0820,33.7077,-6.8597,-126.9413,37.42278651478471,-122.16389089625362,29.1421,0.0000
2024-11-15T22:01:14.667Z,0.2988,0.2571,-2.2658,0.3245,0.0735,-0.0111,33.6924,-6.8922,-126.8957,37.42278651478471,-122.16389089625362,29.1421,0.0000
2024-11-15T22:01:14.676Z,0.2988,0.2571,-2.2658,0.2332,0.1001,-0.1198,33.6479,-7.2749,-127.0624,37.42278651478471,-122.16389089625362,29.1421,0.0000
2024-11-15T22:01:14.687Z,0.5367,0.3632,-2.4843,0.1497,0.0971,-0.2118,33.8731,-7.1638,-126.5092,37.42278651478471,-122.16389089625362,29.1421,0.0000
2024-11-15T22:01:14.696Z,0.5367,0.3632,-2.4843,0.0768,0.0328,-0.2785,33.7925,-7.0077,-126.8231,37.42278651478471,-122.16389089625362,29.1421,0.0000
2024-11-15T22:01:14.706Z,0.4171,0.6786,-2.3171,0.0289,-0.0290,-0.3175,33.8753,-7.2190,-126.7857,37.42278651478471,-122.16389089625362,29.1421,0.0000
2024-11-15T22:01:14.716Z,0.0971,0.7407,-2.0672,0.0041,-0.0616,-0.3202,33.9548,-7.1458,-126.9176,37.42278651478471,-122.16389089625362,29.1421,0.0000
2024-11-15T22:01:14.726Z,-0.5419,0.7120,-1.1831,0.0231,-0.0213,-0.2916,33.8042,-7.0809,-126.9800,37.42278651478471,-122.16389089625362,29.1421,0.0000
2024-11-15T22:01:14.737Z,-0.5419,0.7120,-1.1831,0.1081,0.0788,-0.2355,33.5697,-6.8311,-126.6972,37.42278651478471,-122.16389089625362,29.1421,0.0000
2024-11-15T22:01:14.745Z,-0.7502,0.6612,-0.5485,0.1081,0.0788,-0.2355,33.8633,-7.0166,-126.8341,37.42278651478471,-122.16389089625362,29.1421,0.0000
2024-11-15T22:01:14.758Z,-0.7787,0.7749,0.5997,0.3613,0.3716,-0.1294,33.9614,-7.1169,-126.7766,37.42278651478471,-122.16389089625362,29.1421,0.0000
2024-11-15T22:01:14.766Z,-0.7787,0.7749,0.5997,0.4510,0.4627,-0.1127,34.2278,-7.1075,-126.4801,37.42278651478471,-122.16389089625362,29.1421,0.0000
2024-11-15T22:01:14.776Z,-0.5966,0.8426,0.9043,0.4770,0.4633,-0.1270,34.4807,-7.2975,-126.5218,37.42278651478471,-122.16389089625362,29.1421,0.0000
2024-11-15T22:01:14.788Z,-0.2271,1.1088,0.8399,0.4770,0.4633,-0.1270,34.5990,-7.7281,-126.0855,37.42278651478471,-122.16389089625362,29.1421,0.0000
2024-11-15T22:01:14.795Z,-0.2271,1.1088,0.8399,0.4322,0.4029,-0.1538,35.0834,-7.9183,-125.8555,37.42278651478471,-122.16389089625362,29.1421,0.0000
2024-11-15T22:01:14.806Z,-0.1835,1.0580,0.7324,0.1850,0.1663,-0.1571,35.1100,-8.0886,-125.8194,37.42278651478471,-122.16389089625362,29.1421,0.0000
2024-11-15T22:01:14.816Z,-0.1835,1.0580,0.7324,0.0450,-0.0520,-0.1296,35.2513,-7.9504,-125.5901,37.42278651478471,-122.16389089625362,29.1421,0.0000
2024-11-15T22:01:14.826Z,-0.5718,0.6032,0.7905,-0.0732,-0.3407,-0.1072,35.1578,-7.9046,-125.5475,37.42278651478471,-122.16389089625362,29.1421,0.0000
2024-11-15T22:01:14.837Z,-0.6685,0.4292,0.8419,-0.0732,-0.3407,-0.1072,34.7517,-8.0126,-125.7685,37.42278651478471,-122.16389089625362,29.1421,0.0000
2024-11-15T22:01:14.845Z,-0.6685,0.4292,0.8419,-0.1724,-0.6473,-0.1112,34.3454,-7.7412,-126.1213,37.42278651478471,-122.16389089625362,29.1421,0.0000
2024-11-15T22:01:14.856Z,-0.2048,0.1789,0.6707,-0.3528,-1.0969,-0.2673,33.8358,-7.4855,-126.4209,37.42278651478471,-122.16389089625362,29.1421,0.0000
2024-11-15T22:01:14.867Z,0.3218,0.2616,0.4978,-0.4266,-1.1849,-0.3786,33.1468,-7.1643,-126.6688,37.42278651478471,-122.16389089625362,29.1421,0.0000
2024-11-15T22:01:14.877Z,0.3218,0.2616,0.4978,-0.5015,-1.1677,-0.4793,32.5243,-6.8761,-126.9835,37.42278651478471,-122.16389089625362,29.1421,0.0000
2024-11-15T22:01:14.887Z,1.3920,0.6913,0.3424,-0.5015,-1.1677,-0.4793,31.9894,-6.3998,-126.9751,37.42278651478471,-122.16389089625362,29.1421,0.0000
2024-11-15T22:01:14.895Z,1.4420,0.7665,0.3372,-0.5493,-0.9987,-0.5376,31.6634,-6.0327,-127.2651,37.42278651478471,-122.16389089625362,29.1421,0.0000
2024-11-15T22:01:14.907Z,1.4420,0.7665,0.3372,-0.3474,-0.3374,-0.5041,31.4537,-5.6905,-127.5118,37.42278651478471,-122.16389089625362,29.1421,0.0000
2024-11-15T22:01:14.917Z,1.2069,0.5270,1.5084,-0.0747,0.0290,-0.4380,31.1121,-5.3882,-127.3780,37.42278651478471,-122.16389089625362,29.1421,0.0000
2024-11-15T22:01:14.927Z,0.9591,0.4044,2.2427,0.2598,0.3096,-0.3655,31.5307,-5.4743,-126.9666,37.42278651478471,-122.16389089625362,29.1421,0.0000
2024-11-15T22:01:14.939Z,0.4101,0.1875,2.5478,0.2598,0.3096,-0.3655,31.7528,-5.5631,-126.9470,37.42278651478471,-122.16389089625362,29.1421,0.0000
2024-11-15T22:01:14.945Z,0.4101,0.1875,2.5478,0.5563,0.4454,-0.3007,31.7843,-5.9415,-127.1163,37.42278651478471,-122.16389089625362,29.1421,0.0000
2024-11-15T22:01:14.956Z,0.1595,0.1027,1.7547,0.7308,0.4970,-0.2485,32.2969,-6.3575,-126.5750,37.42278651478471,-122.16389089625362,29.1421,0.0000
2024-11-15T22:01:14.967Z,0.1595,0.1027,1.7547,0.7348,0.5143,-0.1999,32.6212,-6.4144,-126.4551,37.42278651478471,-122.16389089625362,29.1421,0.0000
2024-11-15T22:01:14.976Z,0.0017,0.3707,-0.5525,0.5962,0.5168,-0.1244,32.6212,-6.4144,-126.4551,37.42278651478471,-122.16389089625362,29.1421,0.0000
2024-11-15T22:01:14.987Z,-0.1074,0.4777,-1.4683,0.3688,0.4823,-0.0303,32.9601,-6.7267,-125.9538,37.42278651478471,-122.16389089625362,29.1421,0.0000
2024-11-15T22:01:14.995Z,-0.1074,0.4777,-1.4683,0.0920,0.3950,0.0731,32.8992,-6.8165,-126.0987,37.42278651478471,-122.16389089625362,29.1421,0.0000
2024-11-15T22:01:15.006Z,-0.3900,0.5703,-2.4493,-0.1901,0.2624,0.1745,33.1514,-6.8491,-126.0213,37.42278651478471,-122.16389089625362,29.1421,0.0000
2024-11-15T22:01:15.016Z,-0.5160,0.4488,-2.5122,-0.4262,0.1174,0.2697,33.1207,-6.6129,-125.9025,37.42278651478471,-122.16389089625362,29.1421,0.0000
2024-11-15T22:01:15.026Z,-0.5160,0.4488,-2.5122,-0.5900,-0.0207,0.3444,33.0494,-6.5667,-126.2173,37.42278651478471,-122.16389089625362,29.1421,0.0000
2024-11-15T22:01:15.037Z,-0.5622,-0.0057,-1.7292,-0.6474,-0.1377,0.3822,33.1679,-6.3087,-125.8604,37.42278651478471,-122.16389089625362,29.1421,0.0000
2024-11-15T22:01:15.045Z,-0.4900,-0.2097,-1.1919,-0.6077,-0.2083,0.3698,33.1343,-5.8592,-125.9616,37.422785934301565,-122.1638976250561,29.0449,0.0000
2024-11-15T22:01:15.056Z,-0.4900,-0.2097,-1.1919,-0.4717,-0.2166,0.3229,32.9181,-5.7936,-126.4557,37.422785934301565,-122.1638976250561,29.0449,0.0000
2024-11-15T22:01:15.066Z,-0.0072,-0.3968,-0.2351,-0.2832,-0.1687,0.2583,32.7756,-5.5997,-125.8035,37.422785934301565,-122.1638976250561,29.0449,0.0000
2024-11-15T22:01:15.076Z,0.0972,-0.3471,-0.0183,-0.0734,-0.1061,0.1999,32.6732,-5.6580,-125.7614,37.422785934301565,-122.1638976250561,29.0449,0.0000
2024-11-15T22:01:15.089Z,0.1147,-0.1576,-0.2780,0.1216,-0.0396,0.1610,32.5695,-5.7878,-126.1297,37.422785934301565,-122.1638976250561,29.0449,0.0000
2024-11-15T22:01:15.095Z,0.1147,-0.1576,-0.2780,0.2702,0.0038,0.1432,32.7240,-5.7832,-125.5231,37.422785934301565,-122.1638976250561,29.0449,0.0000
2024-11-15T22:01:15.106Z,0.1325,0.0259,-0.7487,0.3382,0.0268,0.1463,32.6498,-6.0331,-125.9321,37.422785934301565,-122.1638976250561,29.0449,0.0000
2024-11-15T22:01:15.116Z,0.1325,0.0259,-0.7487,0.3320,0.0367,0.1758,32.6904,-6.2362,-125.4970,37.422785934301565,-122.1638976250561,29.0449,0.0000
2024-11-15T22:01:15.126Z,0.0987,0.3400,-1.7011,0.2683,0.0356,0.2177,32.7629,-6.2972,-125.6485,37.422785934301565,-122.1638976250561,29.0449,0.0000
2024-11-15T22:01:15.137Z,0.1536,0.4462,-1.9121,0.1889,0.0112,0.2575,32.7496,-6.5342,-125.3117,37.422785934301565,-122.1638976250561,29.0449,0.0000
2024-11-15T22:01:15.145Z,0.1536,0.4462,-1.9121,0.1357,-0.0241,0.2657,32.7026,-6.8506,-125.7484,37.422785934301565,-122.1638976250561,29.0449,0.0000
2024-11-15T22:01:15.156Z,0.5674,0.6562,-1.6156,0.1145,-0.0672,0.2414,32.4698,-6.9787,-125.6732,37.422785934301565,-122.1638976250561,29.0449,0.0000
2024-11-15T22:01:15.166Z,0.7196,0.6713,-1.2876,0.1097,-0.0869,0.1872,32.6856,-6.9771,-125.3764,37.422785934301565,-122.1638976250561,29.0449,0.0000
2024-11-15T22:01:15.176Z,0.7196,0.6713,-1.2876,0.1083,-0.0523,0.1296,32.5266,-7.0192,-124.8495,37.422785934301565,-122.1638976250561,29.0449,0.0000
2024-11-15T22:01:15.186Z,0.7149,0.5394,-0.5457,0.1165,0.0178,0.0935,32.6478,-7.1690,-125.3779,37.422785934301565,-122.1638976250561,29.0449,0.0000
2024-11-15T22:01:15.195Z,0.5688,0.5183,-0.0390,0.1588,0.0928,0.0848,32.7826,-7.2571,-125.1382,37.422785934301565,-122.1638976250561,29.0449,0.0000
2024-11-15T22:01:15.206Z,0.5688,0.5183,-0.0390,0.2205,0.1335,0.1028,32.7998,-7.3819,-125.1159,37.422785934301565,-122.1638976250561,29.0449,0.0000
2024-11-15T22:01:15.216Z,0.2037,0.6381,0.8739,0.2846,0.1301,0.1347,32.9575,-7.8796,-125.0012,37.422785934301565,-122.1638976250561,29.0449,0.0000
2024-11-15T22:01:15.226Z,0.1346,0.6987,1.0348,0.3233,0.0972,0.1724,33.0175,-7.9908,-124.6269,37.422785934301565,-122.1638976250561,29.0449,0.0000
2024-11-15T22:01:15.237Z,0.1346,0.6987,1.0348,0.3241,0.0625,0.2011,32.7901,-8.1960,-124.9307,37.422785934301565,-122.1638976250561,29.0449,0.0000
2024-11-15T22:01:15.245Z,0.1736,0.8322,0.8863,0.2802,0.0534,0.2140,32.9899,-8.6628,-124.9755,37.422785934301565,-122.1638976250561,29.0449,0.0000
2024-11-15T22:01:15.256Z,0.2606,0.7507,0.7771,0.2015,0.0705,0.2056,33.0417,-8.6057,-124.8374,37.422785934301565,-122.1638976250561,29.0449,0.0000
2024-11-15T22:01:15.266Z,0.2606,0.7507,0.7771,0.1114,0.0964,0.1891,33.0678,-8.6524,-125.0523,37.422785934301565,-122.1638976250561,29.0449,0.0000
2024-11-15T22:01:15.276Z,0.3507,0.5726,0.8732,0.0426,0.1056,0.1629,33.1781,-8.8886,-125.0188,37.422785934301565,-122.1638976250561,29.0449,0.0000
2024-11-15T22:01:15.287Z,0.3495,0.5020,1.1170,0.0048,0.1068,0.1303,33.1781,-8.8886,-125.0188,37.422785934301565,-122.1638976250561,29.0449,0.0000
2024-11-15T22:01:15.295Z,0.3495,0.5020,1.1170,-0.0142,0.1171,0.1056,33.1817,-8.8769,-124.6357,37.422785934301565,-122.1638976250561,29.0449,0.0000
2024-11-15T22:01:15.306Z,0.0242,0.1865,1.6036,-0.0093,0.1299,0.0875,33.4312,-8.9010,-124.7826,37.422785934301565,-122.1638976250561,29.0449,0.0000
2024-11-15T22:01:15.316Z,-0.1530,0.0166,1.7482,-0.0030,0.1306,0.0719,33.5194,-8.8910,-124.4669,37.422785934301565,-122.1638976250561,29.0449,0.0000
2024-11-15T22:01:15.326Z,-0.1530,0.0166,1.7482,-0.0204,0.0663,0.0500,33.3549,-9.0390,-124.0715,37.422785934301565,-122.1638976250561,29.0449,0.0000
2024-11-15T22:01:15.337Z,-0.2876,0.1256,1.6221,-0.0795,-0.0661,0.0188,33.3860,-8.8074,-124.3609,37.422785934301565,-122.1638976250561,29.0449,0.0000
2024-11-15T22:01:15.345Z,-0.2214,0.4605,1.3586,-0.2007,-0.1910,-0.0066,33.3345,-8.7935,-124.1777,37.422785934301565,-122.1638976250561,29.0449,0.0000
2024-11-15T22:01:15.356Z,-0.2214,0.4605,1.3586,-0.4249,-0.2347,0.0267,33.0284,-8.6286,-124.3886,37.422785934301565,-122.1638976250561,29.0449,0.0000
2024-11-15T22:01:15.366Z,-0.4557,0.7975,0.8688,-0.7062,-0.2286,0.1568,32.9626,-8.2159,-124.1124,37.422785934301565,-122.1638976250561,29.0449,0.0000
2024-11-15T22:01:15.376Z,-1.0713,0.3219,0.8761,-0.9812,-0.2235,0.3602,32.8949,-8.0821,-123.9936,37.422785934301565,-122.1638976250561,29.0449,0.0000
2024-11-15T22:01:15.387Z,-1.0713,0.3219,0.8761,-1.1424,-0.3157,0.5598,32.5493,-7.4367,-124.2841,37.422785934301565,-122.1638976250561,29.0449,0.0000
2024-11-15T22:01:15.395Z,-1.7650,-0.9161,2.1800,-1.1373,-0.5266,0.6953,32.6487,-7.0437,-124.1776,37.422785934301565,-122.1638976250561,29.0449,0.0000
2024-11-15T22:01:15.406Z,-1.3905,-0.9211,2.9978,-0.9794,-0.7317,0.7364,32.1230,-6.8362,-124.4330,37.422785934301565,-122.1638976250561,29.0449,0.0000
2024-11-15T22:01:15.416Z,-1.3905,-0.9211,2.9978,-0.6842,-0.8508,0.6801,31.7442,-6.4968,-124.6088,37.422785934301565,-122.1638976250561,29.0449,0.0000
2024-11-15T22:01:15.426Z,-0.1988,-1.0025,4.0957,-0.2888,-0.8646,0.5422,31.1353,-6.3091,-124.8559,37.422785934301565,-122.1638976250561,29.0449,0.0000
2024-11-15T22:01:15.437Z,0.2154,-0.8959,3.9444,0.1445,-0.7732,0.3492,30.7270,-6.7287,-124.9904,37.422785934301565,-122.1638976250561,29.0449,0.0000
2024-11-15T22:01:15.445Z,0.2154,-0.8959,3.9444,0.5355,-0.5757,0.1615,30.4172,-6.9807,-125.1819,37.422785934301565,-122.1638976250561,29.0449,0.0000
2024-11-15T22:01:15.456Z,0.7640,-0.3101,2.3198,0.7997,-0.2837,0.0327,30.4582,-7.2471,-124.9400,37.422785934301565,-122.1638976250561,29.0449,0.0000
2024-11-15T22:01:15.466Z,0.7179,-0.0981,1.1146,0.9036,0.0687,-0.0142,30.3847,-7.7264,-124.9959,37.422785934301565,-122.1638976250561,29.0449,0.0000
2024-11-15T22:01:15.476Z,0.7179,-0.0981,1.1146,0.8405,0.4434,0.0213,30.5597,-8.1109,-124.8340,37.422785934301565,-122.1638976250561,29.0449,0.0000
2024-11-15T22:01:15.487Z,0.2881,0.3740,-1.1667,0.6446,0.7516,0.1114,30.9705,-8.5650,-124.6904,37.422785934301565,-122.1638976250561,29.0449,0.0000
2024-11-15T22:01:15.495Z,-0.0545,0.2918,-1.9212,0.3830,0.9203,0.2275,31.4992,-8.7266,-124.1805,37.422785934301565,-122.1638976250561,29.0449,0.0000
2024-11-15T22:01:15.506Z,-0.0545,0.2918,-1.9212,0.1291,0.9163,0.3541,31.8863,-8.8167,-124.0289,37.422785934301565,-122.1638976250561,29.0449,0.0000
2024-11-15T22:01:15.516Z,-0.8815,-0.2119,-2.1092,-0.0626,0.7882,0.4610,32.3749,-9.0805,-123.9217,37.422785934301565,-122.1638976250561,29.0449,0.0000
2024-11-15T22:01:15.526Z,-1.0090,-0.3970,-1.5832,-0.1624,0.5665,0.5326,32.3215,-9.0607,-123.8893,37.422785934301565,-122.1638976250561,29.0449,0.0000
2024-11-15T22:01:15.537Z,-1.0090,-0.3970,-1.5832,-0.1867,0.3270,0.5543,32.5958,-8.8914,-123.5526,37.422785934301565,-122.1638976250561,29.0449,0.0000
2024-11-15T22:01:15.545Z,-0.9034,-0.7216,-0.7370,-0.1562,0.1191,0.5301,32.5482,-9.0061,-123.3972,37.422785934301565,-122.1638976250561,29.0449,0.0000
2024-11-15T22:01:15.556Z,-0.6816,-0.8172,-0.4980,-0.0908,-0.0477,0.4658,32.5482,-9.0061,-123.3972,37.422785934301565,-122.1638976250561,29.0449,0.0000
2024-11-15T22:01:15.566Z,-0.6816,-0.8172,-0.4980,-0.0068,-0.1679,0.3719,32.5212,-9.2880,-123.8289,37.422785934301565,-122.1638976250561,29.0449,0.0000
2024-11-15T22:01:15.576Z,-0.2399,-0.7751,-0.6593,0.0800,-0.2422,0.2688,32.2412,-9.2478,-123.5409,37.422785934301565,-122.1638976250561,29.0449,0.0000
2024-11-15T22:01:15.588Z,-0.1289,-0.6145,-0.9822,0.1605,-0.2563,0.1944,32.2618,-9.2291,-123.6101,37.422785934301565,-122.1638976250561,29.0449,0.0000
2024-11-15T22:01:15.596Z,-0.1289,-0.6145,-0.9822,0.2414,-0.2159,0.1640,32.1128,-9.4914,-123.6967,37.422785934301565,-122.1638976250561,29.0449,0.0000
2024-11-15T22:01:15.606Z,-0.0568,-0.3833,-1.6360,0.3244,-0.1419,0.1736,32.2456,-9.6689,-123.8616,37.422785934301565,-122.1638976250561,29.0449,0.0000
2024-11-15T22:01:15.616Z,0.0090,-0.2950,-1.9783,0.3935,-0.0441,0.2016,32.2456,-9.6689,-123.8616,37.422785934301565,-122.1638976250561,29.0449,0.0000
2024-11-15T22:01:15.626Z,0.0090,-0.2950,-1.9783,0.4494,0.0738,0.2161,32.3689,-10.3553,-123.1651,37.422785934301565,-122.1638976250561,29.0449,0.0000
2024-11-15T22:01:15.637Z,0.3649,-0.1174,-2.6701,0.4865,0.2033,0.1949,32.3689,-10.3553,-123.1651,37.422785934301565,-122.1638976250561,29.0449,0.0000
2024-11-15T22:01:15.645Z,0.5800,-0.0705,-2.9671,0.4708,0.2983,0.1442,32.3545,-10.3664,-123.3245,37.422785934301565,-122.1638976250561,29.0449,0.0000
2024-11-15T22:01:15.656Z,0.5800,-0.0705,-2.9671,0.3957,0.3572,0.0760,32.5843,-10.6742,-123.1920,37.422785934301565,-122.1638976250561,29.0449,0.0000
2024-11-15T22:01:15.666Z,0.7398,0.0409,-3.4837,0.2760,0.3616,-0.0070,32.5099,-10.8577,-122.7966,37.422785934301565,-122.1638976250561,29.0449,0.0000
2024-11-15T22:01:15.676Z,0.7104,0.0934,-3.4717,0.1516,0.3036,-0.0940,32.8169,-10.7663,-122.6976,37.422785934301565,-122.1638976250561,29.0449,0.0000
2024-11-15T22:01:15.687Z,0.7104,0.0934,-3.4717,0.0526,0.2218,-0.1762,32.9041,-11.0095,-122.6916,37.422785934301565,-122.1638976250561,29.0449,0.0000
2024-11-15T22:01:15.695Z,0.4387,0.2095,-2.8747,-0.0054,0.1752,-0.2265,33.1707,-10.7553,-122.5910,37.422785934301565,-122.1638976250561,29.0449,0.0000
2024-11-15T22:01:15.706Z,0.2766,0.1755,-2.2676,-0.0235,0.1763,-0.2408,33.2193,-10.7124,-122.3762,37.422785934301565,-122.1638976250561,29.0449,0.0000
2024-11-15T22:01:15.716Z,0.2766,0.1755,-2.2676,0.0052,0.2096,-0.2311,33.1291,-10.5860,-122.5018,37.422785934301565,-122.1638976250561,29.0449,0.0000
2024-11-15T22:01:15.726Z,0.1528,0.2570,-0.9087,0.0745,0.2549,-0.2135,33.3752,-10.4101,-122.2782,37.422785934301565,-122.1638976250561,29.0449,0.0000
2024-11-15T22:01:15.737Z,0.2214,0.2728,-0.2696,0.1681,0.2878,-0.2038,33.6040,-10.4525,-122.0530,37.422785934301565,-122.1638976250561,29.0449,0.0000
2024-11-15T22:01:15.745Z,0.2214,0.2728,-0.2696,0.2513,0.2910,-0.2192,33.8204,-10.5313,-122.0948,37.422785934301565,-122.1638976250561,29.0449,0.0000
2024-11-15T22:01:15.756Z,0.4809,0.4828,0.3823,0.2877,0.2813,-0.2380,33.8288,-10.6366,-121.9934,37.422785934301565,-122.1638976250561,29.0449,0.0000
2024-11-15T22:01:15.766Z,0.5546,0.5109,0.4219,0.2601,0.2893,-0.2676,34.1062,-10.7546,-121.6171,37.422785934301565,-122.1638976250561,29.0449,0.0000
2024-11-15T22:01:15.776Z,0.5546,0.5109,0.4219,0.1873,0.2944,-0.3046,34.4339,-10.5812,-121.5726,37.422785934301565,-122.1638976250561,29.0449,0.0000
2024-11-15T22:01:15.787Z,0.6868,0.4131,0.5790,0.1199,0.2787,-0.3646,34.2894,-10.4613,-121.5034,37.422785934301565,-122.1638976250561,29.0449,0.0000
2024-11-15T22:01:15.796Z,0.7007,0.3843,0.8711,0.0642,0.2360,-0.4307,34.8374,-10.4461,-121.3078,37.422785934301565,-122.1638976250561,29.0449,0.0000
2024-11-15T22:01:15.806Z,0.7007,0.3843,0.8711,0.0341,0.1968,-0.4817,34.6503,-10.2545,-121.6359,37.422785934301565,-122.1638976250561,29.0449,0.0000
2024-11-15T22:01:15.816Z,0.1814,0.0151,1.7169,0.0427,0.1071,-0.4988,34.8204,-10.0837,-121.0805,37.422785934301565,-122.1638976250561,29.0449,0.0000
2024-11-15T22:01:15.826Z,-0.0939,-0.1248,2.0238,0.0773,-0.0651,-0.4950,34.8503,-9.9626,-121.1162,37.422785934301565,-122.1638976250561,29.0449,0.0000
2024-11-15T22:01:15.837Z,-0.0939,-0.1248,2.0238,0.1254,-0.3235,-0.4962,34.7919,-9.9646,-121.3741,37.422785934301565,-122.1638976250561,29.0449,0.0000
2024-11-15T22:01:15.846Z,-0.2303,-0.0197,1.6888,0.1408,-0.6010,-0.5254,34.5721,-9.6797,-121.5953,37.422785934301565,-122.1638976250561,29.0449,0.0000
2024-11-15T22:01:15.856Z,0.1199,0.2206,1.1133,0.1187,-0.7806,-0.6046,34.1786,-9.6460,-121.7359,37.422785934301565,-122.1638976250561,29.0449,0.0000
2024-11-15T22:01:15.866Z,0.1199,0.2206,1.1133,0.0905,-0.8005,-0.7327,33.7891,-9.3655,-122.1325,37.422785934301565,-122.1638976250561,29.0449,0.0000
2024-11-15T22:01:15.876Z,1.3302,1.0355,0.5058,0.0768,-0.7066,-0.8944,33.6598,-9.0835,-121.9724,37.422785934301565,-122.1638976250561,29.0449,0.0000
2024-11-15T22:01:15.888Z,1.7288,1.5198,0.4653,0.0760,-0.5408,-1.0464,33.3209,-8.8508,-122.3109,37.422785934301565,-122.1638976250561,29.0449,0.0000
2024-11-15T22:01:15.895Z,1.7288,1.5198,0.4653,0.0475,-0.2795,-1.1198,33.4464,-8.4706,-121.9276,37.422785934301565,-122.1638976250561,29.0449,0.0000
2024-11-15T22:01:15.907Z,1.7893,2.4749,0.6891,-0.0066,0.0659,-1.0666,33.3492,-8.1953,-121.8847,37.422785934301565,-122.1638976250561,29.0449,0.0000
2024-11-15T22:01:15.917Z,0.9899,2.0465,0.8601,-0.0340,0.3785,-0.9173,33.3492,-8.1953,-121.8847,37.422785934301565,-122.1638976250561,29.0449,0.0000
2024-11-15T22:01:15.926Z,0.9899,2.0465,0.8601,0.0001,0.5875,-0.7402,34.0659,-7.7357,-121.4440,37.422785934301565,-122.1638976250561,29.0449,0.0000
2024-11-15T22:01:15.937Z,-0.7057,0.8951,1.2601,0.0534,0.7021,-0.5585,34.0659,-7.7357,-121.4440,37.422785934301565,-122.1638976250561,29.0449,0.0000
2024-11-15T22:01:15.945Z,-0.7057,0.8951,1.2601,0.0930,0.6934,-0.3944,34.4949,-7.5139,-121.1980,37.422785934301565,-122.1638976250561,29.0449,0.0000
2024-11-15T22:01:15.956Z,-0.9473,0.6230,1.3258,0.0944,0.5676,-0.2711,34.6198,-7.4016,-121.3147,37.422785934301565,-122.1638976250561,29.0449,0.0000
2024-11-15T22:01:15.966Z,-1.1419,0.0483,0.6355,0.0521,0.3867,-0.2080,35.0033,-7.4060,-120.7927,37.422785934301565,-122.1638976250561,29.0449,0.0000
2024-11-15T22:01:15.977Z,-0.9152,0.0481,0.2641,-0.0248,0.1798,-0.1811,34.9671,-7.3122,-120.7187,37.422785934301565,-122.1638976250561,29.0449,0.0000
2024-11-15T22:01:15.987Z,-0.9152,0.0481,0.2641,-0.1261,-0.0107,-0.1569,35.2633,-7.2101,-120.3480,37.422785934301565,-122.1638976250561,29.0449,0.0000
2024-11-15T22:01:15.995Z,-0.6601,0.0555,-0.4306,-0.2223,-0.1330,-0.1195,34.9727,-6.6494,-120.4233,37.422785934301565,-122.1638976250561,29.0449,0.0000
2024-11-15T22:01:16.007Z,-0.6168,-0.1146,-0.5526,-0.2622,-0.1820,-0.0597,34.9230,-6.5549,-120.5825,37.422785934301565,-122.1638976250561,29.0449,0.0000
2024-11-15T22:01:16.016Z,-0.6168,-0.1146,-0.5526,-0.2493,-0.1619,0.0260,34.8833,-6.4667,-120.6465,37.422785934301565,-122.1638976250561,29.0449,0.0000
2024-11-15T22:01:16.026Z,-0.6692,-0.3548,-0.5467,-0.1917,-0.1071,0.1319,34.8332,-6.2589,-120.5030,37.422785934301565,-122.1638976250561,29.0449,0.0000
2024-11-15T22:01:16.038Z,-0.6816,-0.5162,-0.6446,-0.1130,-0.0675,0.2377,34.6393,-6.0334,-120.3536,37.422785934301565,-122.1638976250561,29.0449,0.0000
2024-11-15T22:01:16.045Z,-0.6816,-0.5162,-0.6446,-0.0220,-0.0502,0.3184,34.7208,-6.0001,-120.1330,37.422785934301565,-122.1638976250561,29.0449,0.0000
2024-11-15T22:01:16.056Z,-0.3457,-0.5097,-1.2721,0.0315,-0.0238,0.3763,34.7637,-6.1762,-120.3539,37.42278858516085,-122.1639158065613,28.9859,1.0014
2024-11-15T22:01:16.066Z,-0.3457,-0.5097,-1.2721,0.0327,0.0058,0.4134,34.5432,-6.3356,-120.3940,37.42278858516085,-122.1639158065613,28.9859,1.0014
2024-11-15T22:01:16.075Z,-0.2028,-0.6085,-1.6891,0.0154,0.0220,0.4329,34.7639,-6.3769,-120.3215,37.42278858516085,-122.1639158065613,28.9859,1.0014
2024-11-15T22:01:16.087Z,-0.0220,-0.7383,-2.1945,-0.0073,0.0118,0.4422,34.6723,-6.5228,-120.2215,37.42278858516085,-122.1639158065613,28.9859,1.0014
2024-11-15T22:01:16.097Z,0.0486,-0.7136,-2.1980,-0.0112,-0.0315,0.4332,34.8224,-6.6191,-120.2497,37.42278858516085,-122.1639158065613,28.9859,1.0014
2024-11-15T22:01:16.106Z,0.0486,-0.7136,-2.1980,0.0001,-0.1063,0.4211,34.8605,-6.7615,-120.5180,37.42278858516085,-122.1639158065613,28.9859,1.0014
2024-11-15T22:01:16.116Z,0.2473,-0.5343,-1.8780,0.0108,-0.1994,0.3996,34.6701,-6.8381,-120.3957,37.42278858516085,-122.1639158065613,28.9859,1.0014
2024-11-15T22:01:16.127Z,0.4082,-0.4226,-1.7654,0.0112,-0.2968,0.3695,34.5355,-6.6195,-120.0204,37.42278858516085,-122.1639158065613,28.9859,1.0014
2024-11-15T22:01:16.137Z,0.4082,-0.4226,-1.7654,0.0110,-0.3450,0.3256,34.2588,-6.6285,-120.3471,37.42278858516085,-122.1639158065613,28.9859,1.0014
2024-11-15T22:01:16.145Z,0.6527,-0.2715,-1.6165,-0.0090,-0.3182,0.3003,34.1347,-6.7527,-120.4379,37.42278858516085,-122.1639158065613,28.9859,1.0014
2024-11-15T22:01:16.155Z,0.6527,-0.2715,-1.6165,-0.0218,-0.2351,0.2889,33.9879,-6.6372,-120.6191,37.42278858516085,-122.1639158065613,28.9859,1.0014
2024-11-15T22:01:16.166Z,0.6254,-0.3317,-1.4197,-0.0045,-0.1376,0.3012,33.8794,-6.6129,-120.5749,37.42278858516085,-122.1639158065613,28.9859,1.0014
2024-11-15T22:01:16.176Z,0.3836,-0.4016,-0.5528,0.0563,-0.0703,0.3233,34.0899,-6.6548,-120.5369,37.42278858516085,-122.1639158065613,28.9859,1.0014
2024-11-15T22:01:16.188Z,0.2119,-0.4253,-0.0990,0.1349,-0.0535,0.3390,34.2000,-6.8808,-120.4458,37.42278858516085,-122.1639158065613,28.9859,1.0014
2024-11-15T22:01:16.195Z,0.2119,-0.4253,-0.0990,0.2023,-0.0735,0.3384,34.0379,-6.9817,-120.7599,37.42278858516085,-122.1639158065613,28.9859,1.0014
2024-11-15T22:01:16.206Z,0.2090,-0.4032,0.2872,0.2307,-0.1174,0.3088,33.9919,-7.1725,-120.6191,37.42278858516085,-122.1639158065613,28.9859,1.0014
2024-11-15T22:01:16.216Z,0.2090,-0.4032,0.2872,0.2092,-0.1523,0.2345,33.9379,-7.3248,-120.7616,37.42278858516085,-122.1639158065613,28.9859,1.0014
2024-11-15T22:01:16.226Z,0.4283,-0.3579,0.3390,0.1634,-0.1726,0.1259,33.9212,-7.4247,-120.4936,37.42278858516085,-122.1639158065613,28.9859,1.0014
2024-11-15T22:01:16.237Z,0.9083,-0.3233,0.6314,0.1125,-0.1458,-0.0025,34.0402,-7.2973,-120.6438,37.42278858516085,-122.1639158065613,28.9859,1.0014
2024-11-15T22:01:16.245Z,0.9083,-0.3233,0.6314,0.0357,-0.0266,-0.1046,34.0402,-7.2973,-120.6438,37.42278858516085,-122.1639158065613,28.9859,1.0014
2024-11-15T22:01:16.257Z,0.9099,-0.3582,1.0335,-0.0802,0.1972,-0.1437,33.9543,-7.0837,-120.2468,37.42278858516085,-122.1639158065613,28.9859,1.0014
2024-11-15T22:01:16.266Z,-0.0010,-0.8558,2.2384,-0.1932,0.3751,-0.1236,33.9543,-7.0837,-120.2468,37.42278858516085,-122.1639158065613,28.9859,1.0014
2024-11-15T22:01:16.276Z,-0.0010,-0.8558,2.2384,-0.2579,0.3110,-0.0820,34.1034,-6.7499,-120.4133,37.42278858516085,-122.1639158065613,28.9859,1.0014
2024-11-15T22:01:16.287Z,-0.7811,-1.2259,2.9720,-0.2406,-0.0739,-0.0492,34.1956,-6.7006,-120.2539,37.42278858516085,-122.1639158065613,28.9859,1.0014
2024-11-15T22:01:16.295Z,-1.7207,-1.0903,3.7872,-0.1691,-0.6403,-0.0588,33.9367,-6.4020,-120.1175,37.42278858516085,-122.1639158065613,28.9859,1.0014
2024-11-15T22:01:16.306Z,-1.7207,-1.0903,3.7872,-0.1304,-1.0806,-0.1156,33.7725,-6.1918,-120.8386,37.42278858516085,-122.1639158065613,28.9859,1.0014
2024-11-15T22:01:16.316Z,-1.5401,-0.6055,3.6142,-0.2031,-1.1949,-0.1624,33.2897,-6.1432,-121.0530,37.42278858516085,-122.1639158065613,28.9859,1.0014
2024-11-15T22:01:16.326Z,0.0231,0.5076,2.5518,-0.3846,-1.0034,-0.1531,32.8025,-5.8833,-121.0692,37.42278858516085,-122.1639158065613,28.9859,1.0014
2024-11-15T22:01:16.339Z,0.1743,0.5006,1.9528,-0.5973,-0.5575,-0.0601,32.4236,-5.6997,-121.0941,37.42278858516085,-122.1639158065613,28.9859,1.0014
2024-11-15T22:01:16.345Z,0.1743,0.5006,1.9528,-0.7222,-0.0463,0.0963,32.1050,-5.2372,-121.3404,37.42278858516085,-122.1639158065613,28.9859,1.0014
2024-11-15T22:01:16.356Z,-0.4933,-0.3241,2.2879,-0.7093,0.3060,0.2692,32.1213,-4.6458,-121.5103,37.42278858516085,-122.1639158065613,28.9859,1.0014
2024-11-15T22:01:16.366Z,-0.4933,-0.3241,2.2879,-0.5608,0.4616,0.4183,32.4455,-4.4826,-121.3858,37.42278858516085,-122.1639158065613,28.9859,1.0014
2024-11-15T22:01:16.376Z,-0.7999,-0.6092,2.8214,-0.3399,0.5106,0.5228,32.4229,-4.3061,-121.2390,37.42278858516085,-122.1639158065613,28.9859,1.0014
2024-11-15T22:01:16.387Z,-0.6725,-0.9361,3.0957,-0.1147,0.4838,0.5647,32.7901,-4.4113,-120.9478,37.42278858516085,-122.1639158065613,28.9859,1.0014
2024-11-15T22:01:16.395Z,-0.6725,-0.9361,3.0957,0.0626,0.3888,0.5182,33.3182,-4.5288,-121.0447,37.42278858516085,-122.1639158065613,28.9859,1.0014
2024-11-15T22:01:16.406Z,-0.2441,-1.0228,2.4983,0.1569,0.2848,0.3818,33.2195,-4.7487,-121.2480,37.42278858516085,-122.1639158065613,28.9859,1.0014
2024-11-15T22:01:16.416Z,0.9177,-0.6155,0.4273,0.1735,0.2088,0.1926,33.2605,-4.7780,-120.8918,37.42278858516085,-122.1639158065613,28.9859,1.0014
2024-11-15T22:01:16.426Z,0.9177,-0.6155,0.4273,0.1172,0.1693,-0.0137,33.4597,-4.7594,-121.2325,37.42278858516085,-122.1639158065613,28.9859,1.0014
2024-11-15T22:01:16.437Z,1.3393,-0.4098,-0.5309,-0.0083,0.2017,-0.1911,33.4726,-4.6974,-120.9797,37.42278858516085,-122.1639158065613,28.9859,1.0014
2024-11-15T22:01:16.445Z,1.2150,-0.1700,-1.9092,-0.1701,0.3002,-0.2888,33.7137,-4.6341,-120.6890,37.42278858516085,-122.1639158065613,28.9859,1.0014
2024-11-15T22:01:16.456Z,1.2150,-0.1700,-1.9092,-0.3195,0.4210,-0.2762,33.8979,-4.4345,-120.9478,37.42278858516085,-122.1639158065613,28.9859,1.0014
2024-11-15T22:01:16.466Z,0.6708,-0.2208,-2.0801,-0.4005,0.5411,-0.1697,34.1685,-4.2332,-120.3103,37.42278858516085,-122.1639158065613,28.9859,1.0014
2024-11-15T22:01:16.477Z,-0.7258,-0.4880,-1.2760,-0.3668,0.6113,-0.0150,34.4852,-3.9884,-120.6535,37.42278858516085,-122.1639158065613,28.9859,1.0014
2024-11-15T22:01:16.487Z,-0.7258,-0.4880,-1.2760,-0.2354,0.5622,0.1451,34.7480,-3.7486,-120.3028,37.42278858516085,-122.1639158065613,28.9859,1.0014
2024-11-15T22:01:16.495Z,-1.0253,-0.5008,-0.6616,-0.0468,0.4222,0.2741,34.7635,-3.7899,-120.4770,37.42278858516085,-122.1639158065613,28.9859,1.0014
2024-11-15T22:01:16.506Z,-1.0756,-0.5716,-0.3947,0.1377,0.2395,0.3500,34.7635,-3.7899,-120.4770,37.42278858516085,-122.1639158065613,28.9859,1.0014
2024-11-15T22:01:16.516Z,-1.0756,-0.5716,-0.3947,0.2569,0.0814,0.3679,35.0415,-4.0422,-120.0307,37.42278858516085,-122.1639158065613,28.9859,1.0014
2024-11-15T22:01:16.526Z,-0.7272,-0.5795,-0.8575,0.3162,-0.0330,0.3438,34.9361,-3.9723,-120.5956,37.42278858516085,-122.1639158065613,28.9859,1.0014
2024-11-15T22:01:16.537Z,0.1567,-0.3834,-2.0257,0.3077,-0.0733,0.3025,34.9954,-4.4256,-120.3351,37.42278858516085,-122.1639158065613,28.9859,1.0014
2024-11-15T22:01:16.546Z,0.1567,-0.3834,-2.0257,0.2465,-0.0678,0.2585,35.0480,-4.4288,-120.4288,37.42278858516085,-122.1639158065613,28.9859,1.0014
2024-11-15T22:01:16.556Z,0.5496,-0.2939,-2.4194,0.1571,-0.0391,0.2287,34.9921,-4.5484,-120.5703,37.42278858516085,-122.1639158065613,28.9859,1.0014
2024-11-15T22:01:16.566Z,0.8989,-0.0133,-2.7879,0.0812,-0.0141,0.2230,34.9201,-4.7301,-120.6932,37.42278858516085,-122.1639158065613,28.9859,1.0014
2024-11-15T22:01:16.576Z,0.8989,-0.0133,-2.7879,0.0297,-0.0201,0.2265,35.0360,-4.6915,-120.4292,37.42278858516085,-122.1639158065613,28.9859,1.0014
2024-11-15T22:01:16.587Z,0.9250,0.0940,-2.6823,-0.0128,-0.0151,0.2299,35.0360,-4.6915,-120.4292,37.42278858516085,-122.1639158065613,28.9859,1.0014
2024-11-15T22:01:16.595Z,0.8061,0.1944,-2.1767,-0.0354,-0.0091,0.2256,34.9494,-4.5817,-120.6443,37.42278858516085,-122.1639158065613,28.9859,1.0014
2024-11-15T22:01:16.606Z,0.8061,0.1944,-2.1767,-0.0485,0.0102,0.2109,34.7130,-4.8147,-120.5849,37.42278858516085,-122.1639158065613,28.9859,1.0014
2024-11-15T22:01:16.616Z,0.6899,0.1974,-1.8628,-0.0375,0.0295,0.1923,34.8288,-4.6452,-120.2906,37.42278858516085,-122.1639158065613,28.9859,1.0014
2024-11-15T22:01:16.626Z,0.2787,0.1196,-0.9060,0.0086,0.0018,0.1930,34.7644,-4.6193,-120.8841,37.42278858516085,-122.1639158065613,28.9859,1.0014
2024-11-15T22:01:16.637Z,0.2787,0.1196,-0.9060,0.0671,-0.0574,0.1983,34.8988,-4.7333,-120.4556,37.42278858516085,-122.1639158065613,28.9859,1.0014
2024-11-15T22:01:16.645Z,0.0326,0.0976,-0.4467,0.1193,-0.1267,0.2059,34.8998,-4.8212,-120.6757,37.42278858516085,-122.1639158065613,28.9859,1.0014
2024-11-15T22:01:16.656Z,-0.1751,0.1064,0.0920,0.1539,-0.1913,0.2074,34.5850,-4.7568,-120.9957,37.42278858516085,-122.1639158065613,28.9859,1.0014
2024-11-15T22:01:16.666Z,-0.1751,0.1064,0.0920,0.1829,-0.2487,0.1900,34.6281,-4.7656,-120.8760,37.42278858516085,-122.1639158065613,28.9859,1.0014
2024-11-15T22:01:16.676Z,-0.0603,0.1626,0.2307,0.2042,-0.2751,0.1422,34.3997,-4.9929,-121.0377,37.42278858516085,-122.1639158065613,28.9859,1.0014
2024-11-15T22:01:16.686Z,0.4425,0.3481,0.3426,0.2138,-0.2748,0.0686,34.1522,-5.0035,-120.9265,37.42278858516085,-122.1639158065613,28.9859,1.0014
2024-11-15T22:01:16.695Z,0.4425,0.3481,0.3426,0.2137,-0.2224,-0.0171,34.1838,-5.1398,-121.2285,37.42278858516085,-122.1639158065613,28.9859,1.0014
2024-11-15T22:01:16.706Z,0.6711,0.4360,0.3793,0.2148,-0.1311,-0.1043,33.9843,-5.1531,-121.4956,37.42278858516085,-122.1639158065613,28.9859,1.0014
2024-11-15T22:01:16.716Z,1.0315,0.7037,0.8345,0.2249,0.0032,-0.1838,34.0267,-4.9904,-121.1497,37.42278858516085,-122.1639158065613,28.9859,1.0014
2024-11-15T22:01:16.726Z,1.0315,0.7037,0.8345,0.2417,0.1690,-0.2462,34.0226,-4.9695,-121.4183,37.42278858516085,-122.1639158065613,28.9859,1.0014
2024-11-15T22:01:16.737Z,1.1306,0.8335,1.1856,0.2704,0.3179,-0.2932,34.0902,-5.0734,-121.5556,37.42278858516085,-122.1639158065613,28.9859,1.0014
2024-11-15T22:01:16.746Z,0.7385,0.7710,1.7735,0.2842,0.4229,-0.3214,34.3637,-5.1028,-121.1729,37.42278858516085,-122.1639158065613,28.9859,1.0014
2024-11-15T22:01:16.756Z,0.7385,0.7710,1.7735,0.2719,0.4336,-0.3395,34.4700,-5.2576,-121.1837,37.42278858516085,-122.1639158065613,28.9859,1.0014
2024-11-15T22:01:16.766Z,0.2728,0.4385,1.9006,0.2576,0.2757,-0.3556,34.7254,-5.1357,-121.1706,37.42278858516085,-122.1639158065613,28.9859,1.0014
2024-11-15T22:01:16.776Z,-0.4027,0.0885,1.8646,0.2427,-0.0436,-0.4129,34.7014,-5.0022,-121.0510,37.42278858516085,-122.1639158065613,28.9859,1.0014
2024-11-15T22:01:16.787Z,-0.4027,0.0885,1.8646,0.2176,-0.3764,-0.5099,34.5073,-4.9449,-121.1394,37.42278858516085,-122.1639158065613,28.9859,1.0014
2024-11-15T22:01:16.795Z,-0.2220,0.4545,1.6410,0.1608,-0.5659,-0.6092,34.4395,-4.7990,-121.5827,37.42278858516085,-122.1639158065613,28.9859,1.0014
2024-11-15T22:01:16.806Z,0.1884,0.8559,1.0041,0.1608,-0.5659,-0.6092,34.2347,-4.7930,-121.5721,37.42278858516085,-122.1639158065613,28.9859,1.0014
2024-11-15T22:01:16.816Z,0.1884,0.8559,1.0041,0.0282,-0.5865,-0.7187,33.6959,-4.3611,-121.8389,37.42278858516085,-122.1639158065613,28.9859,1.0014
2024-11-15T22:01:16.826Z,0.1397,0.7404,0.7622,0.0281,-0.5397,-0.7459,33.6283,-4.2216,-121.6664,37.42278858516085,-122.1639158065613,28.9859,1.0014
2024-11-15T22:01:16.838Z,0.1460,0.9802,0.8248,0.0651,-0.4549,-0.7217,33.1828,-4.0765,-121.9671,37.42278858516085,-122.1639158065613,28.9859,1.0014
2024-11-15T22:01:16.845Z,0.1460,0.9802,0.8248,0.1249,-0.3249,-0.6185,33.1828,-4.0765,-121.9671,37.42278858516085,-122.1639158065613,28.9859,1.0014
2024-11-15T22:01:16.855Z,0.0982,1.1650,0.9210,0.1462,-0.1247,-0.4600,33.1507,-3.7903,-122.2351,37.42278858516085,-122.1639158065613,28.9859,1.0014
2024-11-15T22:01:16.867Z,-0.0193,0.9374,0.5652,0.1232,0.0810,-0.2994,33.0185,-3.6702,-122.5765,37.42278858516085,-122.1639158065613,28.9859,1.0014
2024-11-15T22:01:16.876Z,-0.0193,0.9374,0.5652,0.0876,0.2475,-0.1766,33.0682,-3.6644,-122.2814,37.42278858516085,-122.1639158065613,28.9859,1.0014
2024-11-15T22:01:16.887Z,-0.0141,0.6624,0.2208,0.0466,0.3499,-0.0885,33.0682,-3.6644,-122.2814,37.42278858516085,-122.1639158065613,28.9859,1.0014
2024-11-15T22:01:16.896Z,-0.0141,0.6624,0.2208,0.0105,0.3695,-0.0235,33.2573,-3.6917,-121.9956,37.42278858516085,-122.1639158065613,28.9859,1.0014
2024-11-15T22:01:16.906Z,-0.0516,0.0158,-0.0698,-0.0270,0.3047,0.0182,33.2158,-3.5954,-122.3561,37.42278858516085,-122.1639158065613,28.9859,1.0014
2024-11-15T22:01:16.917Z,0.0023,-0.1616,-0.1467,-0.0901,0.1763,0.0496,33.6697,-3.5697,-121.8711,37.42278858516085,-122.1639158065613,28.9859,1.0014
2024-11-15T22:01:16.926Z,0.1099,-0.1721,-0.6144,-0.2108,0.0238,0.1009,33.6697,-3.5697,-121.8711,37.42278858516085,-122.1639158065613,28.9859,1.0014
2024-11-15T22:01:16.937Z,0.1099,-0.1721,-0.6144,-0.3893,-0.1890,0.1773,33.8025,-3.4779,-122.0598,37.42278858516085,-122.1639158065613,28.9859,1.0014
2024-11-15T22:01:16.946Z,0.0626,-0.2745,-1.0327,-0.6095,-0.4554,0.2426,33.5458,-3.3024,-122.1350,37.42278858516085,-122.1639158065613,28.9859,1.0014
2024-11-15T22:01:16.957Z,-0.0883,-0.6307,-2.0115,-0.8075,-0.6480,0.2801,33.1903,-2.9589,-122.1027,37.42278858516085,-122.1639158065613,28.9859,1.0014
2024-11-15T22:01:16.966Z,-0.0883,-0.6307,-2.0115,-0.9261,-0.7620,0.2930,32.9563,-2.5465,-122.5187,37.42278858516085,-122.1639158065613,28.9859,1.0014
2024-11-15T22:01:16.976Z,-0.0321,-0.8040,-1.9693,-0.9442,-0.8276,0.2689,32.4802,-2.1503,-122.5838,37.42278858516085,-122.1639158065613,28.9859,1.0014
2024-11-15T22:01:16.989Z,0.4449,-0.8876,-1.4126,-0.8685,-0.8495,0.2096,32.0724,-1.7458,-123.0095,37.42278858516085,-122.1639158065613,28.9859,1.0014
2024-11-15T22:01:16.995Z,0.4449,-0.8876,-1.4126,-0.7119,-0.8273,0.1270,31.7292,-1.1283,-123.0454,37.42278858516085,-122.1639158065613,28.9859,1.0014
2024-11-15T22:01:17.006Z,0.5966,-0.7869,-1.2062,-0.5036,-0.7455,0.0322,31.4361,-1.0348,-123.2963,37.42278858516085,-122.1639158065613,28.9859,1.0014
2024-11-15T22:01:17.016Z,0.8629,-0.5664,-1.0587,-0.2929,-0.6103,-0.0483,30.8925,-0.8022,-123.2675,37.42278858516085,-122.1639158065613,28.9859,1.0014
2024-11-15T22:01:17.026Z,0.8629,-0.5664,-1.0587,-0.1041,-0.4287,-0.0980,30.5738,-0.5937,-123.7723,37.42278858516085,-122.1639158065613,28.9859,1.0014
2024-11-15T22:01:17.037Z,0.8187,-0.4575,-1.1848,0.0443,-0.2125,-0.1087,30.3732,-0.5501,-124.0838,37.42278858516085,-122.1639158065613,28.9859,1.0014
2024-11-15T22:01:17.046Z,0.8187,-0.4575,-1.1848,0.1505,0.0056,-0.0808,30.5161,-0.3315,-123.7592,37.42278858516085,-122.1639158065613,28.9859,1.0014
2024-11-15T22:01:17.057Z,0.5168,-0.3399,-1.4649,0.2256,0.1615,-0.0167,30.4876,-0.4173,-124.2049,37.422792593289955,-122.16393998671677,28.9313,1.4876
2024-11-15T22:01:17.066Z,0.3546,-0.2634,-1.4938,0.2798,0.2251,0.0474,30.5214,-0.5351,-124.1201,37.422792593289955,-122.16393998671677,28.9313,1.4876
2024-11-15T22:01:17.076Z,0.2612,-0.0701,-1.4574,0.3138,0.2115,0.0793,30.8108,-0.8061,-124.0629,37.422792593289955,-122.16393998671677,28.9313,1.4876
2024-11-15T22:01:17.088Z,0.2612,-0.0701,-1.4574,0.3141,0.1564,0.0802,30.7483,-0.8874,-123.9356,37.422792593289955,-122.16393998671677,28.9313,1.4876
2024-11-15T22:01:17.095Z,0.4136,0.0062,-1.4347,0.3141,0.1564,0.0802,30.8853,-0.9719,-124.1463,37.422792593289955,-122.16393998671677,28.9313,1.4876
2024-11-15T22:01:17.107Z,0.7070,0.1396,-1.3588,0.1911,-0.0019,0.0169,30.9098,-1.1671,-124.1173,37.422792593289955,-122.16393998671677,28.9313,1.4876
2024-11-15T22:01:17.116Z,0.7070,0.1396,-1.3588,0.1055,-0.0969,-0.0104,30.8774,-1.2729,-123.8932,37.422792593289955,-122.16393998671677,28.9313,1.4876
2024-11-15T22:01:17.126Z,0.6924,0.1399,-1.2217,0.0425,-0.1839,-0.0181,30.9215,-1.3380,-124.1190,37.422792593289955,-122.16393998671677,28.9313,1.4876
2024-11-15T22:01:17.139Z,0.2679,0.0181,-0.5195,0.0425,-0.1839,-0.0181,30.7766,-1.3092,-124.3236,37.422792593289955,-122.16393998671677,28.9313,1.4876
2024-11-15T22:01:17.145Z,0.2679,0.0181,-0.5195,0.0282,-0.2278,0.0004,30.6655,-1.3591,-124.3891,37.422792593289955,-122.16393998671677,28.9313,1.4876
2024-11-15T22:01:17.156Z,0.1347,-0.0052,0.0204,0.1370,-0.1739,0.0570,30.2940,-1.4434,-124.4137,37.422792593289955,-122.16393998671677,28.9313,1.4876
2024-11-15T22:01:17.166Z,0.1347,-0.0052,0.0204,0.2236,-0.0828,0.0826,30.3688,-1.5137,-124.8753,37.422792593289955,-122.16393998671677,28.9313,1.4876
2024-11-15T22:01:17.176Z,0.1136,0.0316,0.8871,0.2772,0.0471,0.1226,30.5044,-1.8803,-124.9842,37.422792593289955,-122.16393998671677,28.9313,1.4876
2024-11-15T22:01:17.187Z,-0.0005,-0.0772,1.0975,0.2772,0.0471,0.1226,30.4343,-1.9872,-124.5562,37.422792593289955,-122.16393998671677,28.9313,1.4876
2024-11-15T22:01:17.195Z,-0.0005,-0.0772,1.0975,0.2772,0.1660,0.1718,30.6653,-2.0440,-124.9045,37.422792593289955,-122.16393998671677,28.9313,1.4876
2024-11-15T22:01:17.206Z,-0.5594,-0.6134,1.1083,0.2279,0.2393,0.2358,30.9156,-2.4124,-124.7203,37.422792593289955,-122.16393998671677,28.9313,1.4876
2024-11-15T22:01:17.217Z,-0.7518,-0.7862,1.1126,0.1518,0.2572,0.2953,30.8288,-2.3801,-124.9122,37.422792593289955,-122.16393998671677,28.9313,1.4876
2024-11-15T22:01:17.226Z,-0.7518,-0.7862,1.1126,0.1176,0.1490,0.3326,30.8288,-2.3801,-124.9122,37.422792593289955,-122.16393998671677,28.9313,1.4876
2024-11-15T22:01:17.237Z,-0.7005,-0.9272,1.8343,0.1176,0.1490,0.3326,31.0703,-2.6017,-124.5104,37.422792593289955,-122.16393998671677,28.9313,1.4876
2024-11-15T22:01:17.245Z,-0.3660,-0.8660,2.2963,0.1953,0.0299,0.2826,30.9798,-2.6508,-124.8431,37.422792593289955,-122.16393998671677,28.9313,1.4876
2024-11-15T22:01:17.256Z,-0.3660,-0.8660,2.2963,0.2566,-0.0434,0.2023,30.9133,-2.9272,-124.7945,37.422792593289955,-122.16393998671677,28.9313,1.4876
2024-11-15T22:01:17.266Z,0.8331,-0.1610,2.2838,0.2049,-0.0106,0.1335,31.1071,-3.1891,-124.7989,37.422792593289955,-122.16393998671677,28.9313,1.4876
2024-11-15T22:01:17.276Z,1.1882,0.0579,1.7405,0.0102,0.1754,0.1163,31.1709,-3.2328,-124.6005,37.422792593289955,-122.16393998671677,28.9313,1.4876
2024-11-15T22:01:17.289Z,0.7099,-0.4652,1.3455,-0.2818,0.4686,0.1459,31.3062,-3.1429,-124.6375,37.422792593289955,-122.16393998671677,28.9313,1.4876
2024-11-15T22:01:17.295Z,0.7099,-0.4652,1.3455,-0.5752,0.7234,0.1763,31.6045,-2.7779,-124.4227,37.422792593289955,-122.16393998671677,28.9313,1.4876
2024-11-15T22:01:17.305Z,0.1053,-1.1240,2.0601,-0.7334,0.8526,0.1946,32.1779,-2.4271,-124.3436,37.422792593289955,-122.16393998671677,28.9313,1.4876
2024-11-15T22:01:17.316Z,0.1053,-1.1240,2.0601,-0.6701,0.8125,0.2093,32.5533,-2.3174,-124.2626,37.422792593289955,-122.16393998671677,28.9313,1.4876
2024-11-15T22:01:17.326Z,-0.7690,-1.8477,4.9798,-0.4161,0.5833,0.1996,32.6846,-2.2501,-123.9184,37.422792593289955,-122.16393998671677,28.9313,1.4876
2024-11-15T22:01:17.337Z,-0.7442,-1.6888,5.9342,-0.0613,0.2900,0.1712,32.9295,-2.2742,-124.1337,37.422792593289955,-122.16393998671677,28.9313,1.4876
2024-11-15T22:01:17.345Z,-0.7442,-1.6888,5.9342,0.2667,0.0032,0.1295,32.8094,-2.4338,-123.9745,37.422792593289955,-122.16393998671677,28.9313,1.4876
2024-11-15T22:01:17.356Z,-0.6281,-1.6428,5.3006,0.4743,-0.1916,0.0618,32.7846,-2.5080,-124.2936,37.422792593289955,-122.16393998671677,28.9313,1.4876
2024-11-15T22:01:17.366Z,-0.3008,-1.4085,3.8477,0.5347,-0.2434,-0.0071,32.6587,-3.0652,-124.3550,37.422792593289955,-122.16393998671677,28.9313,1.4876
2024-11-15T22:01:17.375Z,-0.3008,-1.4085,3.8477,0.4822,-0.1966,-0.0401,32.7294,-3.3716,-124.2330,37.422792593289955,-122.16393998671677,28.9313,1.4876
2024-11-15T22:01:17.387Z,0.3412,-0.5417,0.9762,0.3724,-0.1032,-0.0290,32.4185,-3.2603,-124.3243,37.422792593289955,-122.16393998671677,28.9313,1.4876
2024-11-15T22:01:17.395Z,0.4340,-0.2812,-0.0952,0.2534,-0.0054,0.0063,32.4118,-3.5205,-124.3494,37.422792593289955,-122.16393998671677,28.9313,1.4876
2024-11-15T22:01:17.406Z,0.4340,-0.2812,-0.0952,0.1504,0.0534,0.0408,32.5691,-3.5499,-124.7077,37.422792593289955,-122.16393998671677,28.9313,1.4876
2024-11-15T22:01:17.416Z,0.4064,-0.1611,-1.5407,0.0612,0.1047,0.0596,32.6202,-3.7039,-124.4630,37.422792593289955,-122.16393998671677,28.9313,1.4876
2024-11-15T22:01:17.426Z,0.3397,-0.3459,-1.9177,-0.0161,0.1597,0.0703,32.7502,-3.5828,-124.4378,37.422792593289955,-122.16393998671677,28.9313,1.4876
2024-11-15T22:01:17.437Z,0.3397,-0.3459,-1.9177,-0.0775,0.1991,0.0660,32.6471,-3.8537,-124.6211,37.422792593289955,-122.16393998671677,28.9313,1.4876
2024-11-15T22:01:17.445Z,0.1875,-0.7193,-2.1274,-0.1083,0.1936,0.0489,32.7799,-3.6289,-124.4529,37.422792593289955,-122.16393998671677,28.9313,1.4876
2024-11-15T22:01:17.456Z,0.1184,-0.8470,-2.0085,-0.0883,0.1378,0.0095,32.8013,-3.7306,-124.7057,37.422792593289955,-122.16393998671677,28.9313,1.4876
2024-11-15T22:01:17.465Z,0.1184,-0.8470,-2.0085,0.0027,0.0701,-0.0503,32.7421,-3.7291,-124.3010,37.422792593289955,-122.16393998671677,28.9313,1.4876
2024-11-15T22:01:17.476Z,0.2114,-0.7461,-1.6508,0.1343,0.0025,-0.1195,32.6463,-3.8101,-124.4994,37.422792593289955,-122.16393998671677,28.9313,1.4876
2024-11-15T22:01:17.487Z,0.2581,-0.6558,-1.6153,0.2629,-0.0371,-0.1712,32.7376,-3.9488,-124.7055,37.422792593289955,-122.16393998671677,28.9313,1.4876
2024-11-15T22:01:17.496Z,0.2581,-0.6558,-1.6153,0.3470,-0.0335,-0.1910,32.7314,-4.1761,-124.8512,37.422792593289955,-122.16393998671677,28.9313,1.4876
2024-11-15T22:01:17.506Z,0.1874,-0.3648,-2.1215,0.3647,-0.0337,-0.1778,32.7078,-4.4095,-124.5492,37.422792593289955,-122.16393998671677,28.9313,1.4876
2024-11-15T22:01:17.516Z,0.0280,-0.2988,-2.5862,0.3140,-0.0609,-0.1376,32.7214,-4.4426,-125.1181,37.422792593289955,-122.16393998671677,28.9313,1.4876
2024-11-15T22:01:17.526Z,0.0280,-0.2988,-2.5862,0.2338,-0.0676,-0.0845,32.6209,-4.4983,-124.8305,37.422792593289955,-122.16393998671677,28.9313,1.4876
2024-11-15T22:01:17.538Z,-0.2712,-0.2027,-3.1727,0.1497,-0.0586,-0.0294,32.5757,-4.7088,-124.9635,37.422792593289955,-122.16393998671677,28.9313,1.4876
2024-11-15T22:01:17.545Z,-0.2697,-0.1523,-3.1180,0.0782,-0.0734,0.0080,32.5757,-4.7088,-124.9635,37.422792593289955,-122.16393998671677,28.9313,1.4876
2024-11-15T22:01:17.556Z,-0.2697,-0.1523,-3.1180,0.0252,-0.0967,0.0211,32.5459,-4.7899,-125.0962,37.422792593289955,-122.16393998671677,28.9313,1.4876
2024-11-15T22:01:17.566Z,-0.0735,0.0301,-2.7308,-0.0063,-0.1169,-0.0071,32.5995,-4.6996,-125.0497,37.422792593289955,-122.16393998671677,28.9313,1.4876
2024-11-15T22:01:17.575Z,0.1651,0.0898,-2.4458,-0.0120,-0.1284,-0.0715,32.4967,-4.5799,-125.4331,37.422792593289955,-122.16393998671677,28.9313,1.4876
2024-11-15T22:01:17.587Z,0.1651,0.0898,-2.4458,-0.0083,-0.1479,-0.1502,32.3589,-4.4993,-125.4417,37.422792593289955,-122.16393998671677,28.9313,1.4876
2024-11-15T22:01:17.595Z,0.3171,0.1569,-1.9647,-0.0071,-0.1757,-0.2213,32.1501,-4.6056,-125.6132,37.422792593289955,-122.16393998671677,28.9313,1.4876
2024-11-15T22:01:17.606Z,0.2081,0.1588,-1.7952,-0.0045,-0.1839,-0.2787,32.1645,-4.4822,-125.8845,37.422792593289955,-122.16393998671677,28.9313,1.4876
2024-11-15T22:01:17.616Z,0.2081,0.1588,-1.7952,0.0129,-0.1578,-0.3173,32.0945,-4.5081,-125.6503,37.422792593289955,-122.16393998671677,28.9313,1.4876
2024-11-15T22:01:17.626Z,-0.1417,0.0355,-1.1952,0.0566,-0.1127,-0.3281,31.9749,-4.5329,-125.6293,37.422792593289955,-122.16393998671677,28.9313,1.4876
2024-11-15T22:01:17.637Z,-0.3827,0.0290,-0.7581,0.1347,-0.0672,-0.3196,31.8889,-4.4506,-125.7142,37.422792593289955,-122.16393998671677,28.9313,1.4876
2024-11-15T22:01:17.645Z,-0.3827,0.0290,-0.7581,0.2259,-0.0222,-0.3088,31.9960,-4.4899,-125.6875,37.422792593289955,-122.16393998671677,28.9313,1.4876
2024-11-15T22:01:17.655Z,-0.3892,0.3503,-0.0999,0.3031,0.0388,-0.2934,31.9644,-4.5988,-125.9438,37.422792593289955,-122.16393998671677,28.9313,1.4876
2024-11-15T22:01:17.666Z,-0.3274,0.4259,0.1062,0.3507,0.1029,-0.2769,32.0668,-4.6643,-125.3953,37.422792593289955,-122.16393998671677,28.9313,1.4876
2024-11-15T22:01:17.676Z,-0.3274,0.4259,0.1062,0.3615,0.1576,-0.2720,32.1929,-4.8862,-125.3638,37.422792593289955,-122.16393998671677,28.9313,1.4876
2024-11-15T22:01:17.687Z,-0.1322,0.7095,0.2532,0.3434,0.1814,-0.2771,32.2592,-5.1729,-125.7087,37.422792593289955,-122.16393998671677,28.9313,1.4876
2024-11-15T22:01:17.695Z,-0.0151,0.8322,0.3285,0.3066,0.1756,-0.2987,32.1693,-5.0381,-125.3130,37.422792593289955,-122.16393998671677,28.9313,1.4876
2024-11-15T22:01:17.706Z,-0.0017,0.8701,0.5373,0.2614,0.1210,-0.3327,32.1093,-5.1746,-125.7523,37.422792593289955,-122.16393998671677,28.9313,1.4876
2024-11-15T22:01:17.715Z,-0.0017,0.8701,0.5373,0.2037,0.0332,-0.3755,32.0456,-5.1305,-125.4709,37.422792593289955,-122.16393998671677,28.9313,1.4876
2024-11-15T22:01:17.726Z,-0.0979,0.7909,0.5733,0.1288,-0.0863,-0.4118,32.1488,-5.1571,-125.5185,37.422792593289955,-122.16393998671677,28.9313,1.4876
2024-11-15T22:01:17.737Z,-0.1687,1.0000,0.5371,0.0167,-0.1855,-0.4210,31.9096,-5.0962,-125.6190,37.422792593289955,-122.16393998671677,28.9313,1.4876
2024-11-15T22:01:17.745Z,-0.1687,1.0000,0.5371,-0.1320,-0.2425,-0.3959,31.9053,-4.9386,-125.5914,37.422792593289955,-122.16393998671677,28.9313,1.4876
2024-11-15T22:01:17.756Z,-0.1758,1.2586,0.6302,-0.3267,-0.1795,-0.3047,31.7721,-4.6626,-125.7238,37.422792593289955,-122.16393998671677,28.9313,1.4876
2024-11-15T22:01:17.766Z,-0.7247,0.7056,1.6029,-0.5137,-0.0373,-0.1480,31.7663,-4.2783,-125.8085,37.422792593289955,-122.16393998671677,28.9313,1.4876
2024-11-15T22:01:17.776Z,-0.7247,0.7056,1.6029,-0.6006,0.0695,0.0286,31.7594,-3.9321,-125.6839,37.422792593289955,-122.16393998671677,28.9313,1.4876
2024-11-15T22:01:17.787Z,-0.8734,0.2734,2.5136,-0.5375,0.0733,0.1390,31.6454,-3.7592,-125.9642,37.422792593289955,-122.16393998671677,28.9313,1.4876
2024-11-15T22:01:17.796Z,-0.2538,-0.1307,3.7835,-0.3620,-0.0022,0.1667,31.5220,-3.6912,-125.8837,37.422792593289955,-122.16393998671677,28.9313,1.4876
2024-11-15T22:01:17.806Z,-0.2538,-0.1307,3.7835,-0.1348,-0.0988,0.1299,31.4123,-3.6301,-125.9524,37.422792593289955,-122.16393998671677,28.9313,1.4876
2024-11-15T22:01:17.816Z,0.0564,-0.4101,3.5827,0.0610,-0.1344,0.0549,31.3388,-3.6380,-125.9036,37.422792593289955,-122.16393998671677,28.9313,1.4876
2024-11-15T22:01:17.827Z,0.5041,-0.5712,2.0898,0.1702,-0.0659,-0.0256,31.4867,-3.9641,-125.7903,37.422792593289955,-122.16393998671677,28.9313,1.4876
2024-11-15T22:01:17.837Z,0.5041,-0.5712,2.0898,0.1740,0.0814,-0.0778,31.4884,-3.8979,-125.7207,37.422792593289955,-122.16393998671677,28.9313,1.4876
2024-11-15T22:01:17.846Z,0.3865,-0.6496,1.3090,0.0943,0.2283,-0.0851,31.4900,-4.0202,-125.7632,37.422792593289955,-122.16393998671677,28.9313,1.4876
2024-11-15T22:01:17.856Z,-0.2782,-0.7261,0.4233,-0.0163,0.3024,-0.0516,31.4900,-4.0202,-125.7632,37.422792593289955,-122.16393998671677,28.9313,1.4876
2024-11-15T22:01:17.867Z,-0.2782,-0.7261,0.4233,-0.1061,0.2929,0.0038,31.8795,-4.0630,-125.6694,37.422792593289955,-122.16393998671677,28.9313,1.4876
2024-11-15T22:01:17.876Z,-0.5149,-0.7228,0.3783,-0.1450,0.2236,0.0705,31.8795,-4.0630,-125.6694,37.422792593289955,-122.16393998671677,28.9313,1.4876
2024-11-15T22:01:17.888Z,-0.4431,-0.6103,0.1479,-0.1552,0.0867,0.1248,31.6965,-3.9011,-125.8319,37.422792593289955,-122.16393998671677,28.9313,1.4876
2024-11-15T22:01:17.895Z,-0.4431,-0.6103,0.1479,-0.1651,-0.0556,0.1400,31.7103,-3.9874,-125.6520,37.422792593289955,-122.16393998671677,28.9313,1.4876
2024-11-15T22:01:17.905Z,-0.1939,-0.5514,-0.2791,-0.1906,-0.1698,0.1216,31.6733,-3.9789,-125.5774,37.422792593289955,-122.16393998671677,28.9313,1.4876
2024-11-15T22:01:17.917Z,0.1604,-0.4094,-1.1459,-0.2279,-0.2321,0.0876,31.5650,-3.7971,-125.5291,37.422792593289955,-122.16393998671677,28.9313,1.4876
2024-11-15T22:01:17.926Z,0.1604,-0.4094,-1.1459,-0.2776,-0.2344,0.0526,31.5286,-3.5687,-125.3531,37.422792593289955,-122.16393998671677,28.9313,1.4876
2024-11-15T22:01:17.937Z,0.2533,-0.3607,-1.4513,-0.3173,-0.2012,0.0373,31.4979,-3.6810,-125.4531,37.422792593289955,-122.16393998671677,28.9313,1.4876
2024-11-15T22:01:17.945Z,0.2533,-0.3607,-1.4513,-0.3066,-0.1765,0.0325,31.4919,-3.4033,-125.6512,37.422792593289955,-122.16393998671677,28.9313,1.4876
2024-11-15T22:01:17.956Z,0.1214,-0.3112,-1.5380,-0.2527,-0.1709,0.0424,31.4154,-3.3620,-125.6577,37.422792593289955,-122.16393998671677,28.9313,1.4876
2024-11-15T22:01:17.966Z,0.0251,-0.2358,-1.5593,-0.1851,-0.1692,0.0600,31.2324,-3.3749,-125.3960,37.422792593289955,-122.16393998671677,28.9313,1.4876
2024-11-15T22:01:17.976Z,-0.1870,-0.2468,-1.7933,-0.1150,-0.1672,0.0825,31.1155,-3.2276,-125.3376,37.422792593289955,-122.16393998671677,28.9313,1.4876
2024-11-15T22:01:17.987Z,-0.1870,-0.2468,-1.7933,-0.0512,-0.1666,0.1098,31.0102,-3.3236,-125.3630,37.422792593289955,-122.16393998671677,28.9313,1.4876
2024-11-15T22:01:17.995Z,-0.2311,-0.1820,-1.9541,-0.0034,-0.1695,0.1380,31.0222,-3.2914,-125.3574,37.422792593289955,-122.16393998671677,28.9313,1.4876
2024-11-15T22:01:18.005Z,-0.2311,-0.1820,-1.9541,0.0437,-0.1712,0.1474,30.8235,-3.3729,-125.7151,37.422792593289955,-122.16393998671677,28.9313,1.4876
2024-11-15T22:01:18.016Z,0.0226,-0.0331,-2.1896,0.0971,-0.1424,0.1368,30.7919,-3.2067,-125.7141,37.422792593289955,-122.16393998671677,28.9313,1.4876
2024-11-15T22:01:18.026Z,0.1396,0.0227,-2.2141,0.1501,-0.0784,0.1096,30.6246,-3.3349,-125.9235,37.422792593289955,-122.16393998671677,28.9313,1.4876
2024-11-15T22:01:18.037Z,0.1396,0.0227,-2.2141,0.2134,0.0198,0.0716,30.5231,-3.4963,-125.7672,37.422792593289955,-122.16393998671677,28.9313,1.4876
2024-11-15T22:01:18.045Z,0.4225,0.1166,-2.0377,0.2910,0.1231,0.0350,30.5791,-3.7165,-125.5439,37.42279871855344,-122.16395876253642,28.9376,1.5312
2024-11-15T22:01:18.059Z,0.5004,0.2583,-1.9294,0.3712,0.2048,0.0095,30.6656,-4.1217,-125.7641,37.42279871855344,-122.16395876253642,28.9376,1.5312
2024-11-15T22:01:18.067Z,0.5004,0.2583,-1.9294,0.3712,0.2048,0.0095,30.8005,-4.3298,-125.6329,37.42279871855344,-122.16395876253642,28.9376,1.5312
2024-11-15T22:01:18.076Z,0.3887,0.5651,-2.1422,0.3259,0.1937,0.0272,31.0847,-4.5472,-125.7976,37.42279871855344,-122.16395876253642,28.9376,1.5312
2024-11-15T22:01:18.087Z,0.2575,0.5784,-2.2246,0.2335,0.1571,0.0533,31.1051,-4.7442,-125.8144,37.42279871855344,-122.16395876253642,28.9376,1.5312
2024-11-15T22:01:18.096Z,0.0747,0.5539,-1.9738,0.1410,0.0944,0.0766,30.9139,-4.8801,-125.7511,37.42279871855344,-122.16395876253642,28.9376,1.5312
2024-11-15T22:01:18.106Z,0.0747,0.5539,-1.9738,0.0681,0.0674,0.0920,30.9131,-4.9468,-125.6744,37.42279871855344,-122.16395876253642,28.9376,1.5312
2024-11-15T22:01:18.117Z,0.0102,0.3614,-1.4551,0.0424,0.0574,0.0976,30.9000,-5.0767,-125.7301,37.42279871855344,-122.16395876253642,28.9376,1.5312
2024-11-15T22:01:18.126Z,0.0102,0.3614,-1.4551,0.0611,0.0478,0.0983,30.9859,-5.1466,-126.3198,37.42279871855344,-122.16395876253642,28.9376,1.5312
2024-11-15T22:01:18.137Z,-0.0288,0.2065,-0.2943,0.1051,0.0310,0.0929,30.9045,-5.2956,-125.9671,37.42279871855344,-122.16395876253642,28.9376,1.5312
2024-11-15T22:01:18.145Z,-0.0787,0.1341,0.1572,0.1371,0.0093,0.0891,30.9804,-5.3730,-125.8230,37.42279871855344,-122.16395876253642,28.9376,1.5312
2024-11-15T22:01:18.156Z,-0.0787,0.1341,0.1572,0.1426,-0.0204,0.0859,30.8564,-5.4376,-126.0066,37.42279871855344,-122.16395876253642,28.9376,1.5312
2024-11-15T22:01:18.166Z,-0.2138,0.0661,0.8031,0.1300,-0.0942,0.0879,30.8992,-5.6095,-125.9217,37.42279871855344,-122.16395876253642,28.9376,1.5312
2024-11-15T22:01:18.176Z,-0.1130,0.3247,1.0480,0.0928,-0.1567,0.0896,30.8461,-5.6584,-126.2288,37.42279871855344,-122.16395876253642,28.9376,1.5312
2024-11-15T22:01:18.189Z,0.2698,0.7078,1.3368,-0.0116,-0.1445,0.0954,30.8461,-5.6584,-126.2288,37.42279871855344,-122.16395876253642,28.9376,1.5312
2024-11-15T22:01:18.195Z,0.2698,0.7078,1.3368,-0.1796,-0.0470,0.1082,30.5177,-5.7103,-125.9557,37.42279871855344,-122.16395876253642,28.9376,1.5312
2024-11-15T22:01:18.206Z,0.4773,0.7813,1.6122,-0.3845,0.1394,0.1281,30.6175,-5.4558,-126.1342,37.42279871855344,-122.16395876253642,28.9376,1.5312
2024-11-15T22:01:18.216Z,0.4773,0.7813,1.6122,-0.5795,0.3932,0.1578,30.8006,-5.3393,-125.7529,37.42279871855344,-122.16395876253642,28.9376,1.5312
2024-11-15T22:01:18.226Z,0.3700,0.0968,3.0761,-0.7287,0.6061,0.1929,30.8099,-5.0871,-125.5625,37.42279871855344,-122.16395876253642,28.9376,1.5312
2024-11-15T22:01:18.237Z,-0.2020,-0.8752,3.9407,-0.8414,0.6790,0.2250,31.1971,-4.5232,-125.6895,37.42279871855344,-122.16395876253642,28.9376,1.5312
2024-11-15T22:01:18.245Z,-0.2020,-0.8752,3.9407,-0.8846,0.5033,0.2166,31.4587,-4.1539,-125.0527,37.42279871855344,-122.16395876253642,28.9376,1.5312
2024-11-15T22:01:18.256Z,-1.3721,-2.6560,5.2373,-0.8025,0.1182,0.1476,31.5071,-3.7619,-125.3374,37.42279871855344,-122.16395876253642,28.9376,1.5312
2024-11-15T22:01:18.266Z,-1.3788,-2.5899,5.8672,-0.5760,-0.3104,0.0324,31.5443,-3.5519,-125.4349,37.42279871855344,-122.16395876253642,28.9376,1.5312
2024-11-15T22:01:18.276Z,-1.3788,-2.5899,5.8672,-0.2790,-0.6028,-0.0373,31.1760,-3.3788,-125.6057,37.42279871855344,-122.16395876253642,28.9376,1.5312
2024-11-15T22:01:18.287Z,-1.3391,-2.0406,5.8276,0.0419,-0.7231,-0.0078,30.8115,-3.4128,-125.4266,37.42279871855344,-122.16395876253642,28.9376,1.5312
2024-11-15T22:01:18.295Z,-1.3824,-1.4890,4.7956,0.3140,-0.6498,0.1126,30.4891,-3.6200,-125.5860,37.42279871855344,-122.16395876253642,28.9376,1.5312
2024-11-15T22:01:18.306Z,-1.3824,-1.4890,4.7956,0.4952,-0.4393,0.2537,30.1561,-3.9227,-125.8932,37.42279871855344,-122.16395876253642,28.9376,1.5312
2024-11-15T22:01:18.316Z,-0.4746,-0.2423,2.0694,0.5423,-0.1123,0.3476,30.2928,-4.2125,-126.1352,37.42279871855344,-122.16395876253642,28.9376,1.5312
2024-11-15T22:01:18.326Z,0.1365,0.1563,0.7526,0.4559,0.2233,0.3821,29.9424,-4.5103,-126.0904,37.42279871855344,-122.16395876253642,28.9376,1.5312
2024-11-15T22:01:18.339Z,0.3245,0.1113,-1.0247,0.2818,0.4507,0.3694,30.3131,-5.0630,-125.8038,37.42279871855344,-122.16395876253642,28.9376,1.5312
2024-11-15T22:01:18.345Z,0.3245,0.1113,-1.0247,0.0800,0.4952,0.3314,30.7101,-5.2145,-125.6549,37.42279871855344,-122.16395876253642,28.9376,1.5312
2024-11-15T22:01:18.356Z,0.1536,-0.0457,-1.2252,-0.0829,0.3854,0.2769,30.7800,-5.2723,-125.5045,37.42279871855344,-122.16395876253642,28.9376,1.5312
2024-11-15T22:01:18.366Z,0.1536,-0.0457,-1.2252,-0.1935,0.1678,0.2125,30.7371,-5.3081,-125.4934,37.42279871855344,-122.16395876253642,28.9376,1.5312
2024-11-15T22:01:18.376Z,-0.4469,-0.5036,-0.7788,-0.2414,-0.0471,0.1490,30.7910,-5.1669,-125.5107,37.42279871855344,-122.16395876253642,28.9376,1.5312
2024-11-15T22:01:18.387Z,-0.8082,-0.8165,-0.4900,-0.2615,-0.1892,0.1010,30.7374,-5.1098,-125.6781,37.42279871855344,-122.16395876253642,28.9376,1.5312
2024-11-15T22:01:18.395Z,-0.8082,-0.8165,-0.4900,-0.2516,-0.2902,0.0751,30.4445,-4.8997,-125.8203,37.42279871855344,-122.16395876253642,28.9376,1.5312
2024-11-15T22:01:18.406Z,-1.0554,-1.0174,-0.2207,-0.2035,-0.3774,0.0644,30.2673,-4.9973,-125.9347,37.42279871855344,-122.16395876253642,28.9376,1.5312
2024-11-15T22:01:18.416Z,-1.0919,-0.9176,-0.2142,-0.1125,-0.4462,0.0699,29.9844,-4.9663,-126.2777,37.42279871855344,-122.16395876253642,28.9376,1.5312
2024-11-15T22:01:18.426Z,-1.0919,-0.9176,-0.2142,0.0055,-0.4784,0.0924,29.9121,-4.7856,-126.1400,37.42279871855344,-122.16395876253642,28.9376,1.5312
2024-11-15T22:01:18.438Z,-0.9700,-0.6627,-0.6285,0.1294,-0.4471,0.1307,29.4818,-5.0000,-126.3580,37.42279871855344,-122.16395876253642,28.9376,1.5312
2024-11-15T22:01:18.445Z,-0.8290,-0.5314,-1.0255,0.2480,-0.3600,0.1796,29.2383,-5.1896,-126.3506,37.42279871855344,-122.16395876253642,28.9376,1.5312
2024-11-15T22:01:18.456Z,-0.8290,-0.5314,-1.0255,0.3479,-0.2334,0.2201,29.1919,-5.3674,-126.4514,37.42279871855344,-122.16395876253642,28.9376,1.5312
2024-11-15T22:01:18.466Z,-0.4051,-0.3156,-1.8270,0.4329,-0.1054,0.2481,29.3552,-5.7671,-126.7694,37.42279871855344,-122.16395876253642,28.9376,1.5312
2024-11-15T22:01:18.476Z,-0.1647,-0.2642,-2.1509,0.4969,-0.0175,0.2504,28.9812,-6.1462,-126.8326,37.42279871855344,-122.16395876253642,28.9376,1.5312
2024-11-15T22:01:18.487Z,-0.1647,-0.2642,-2.1509,0.5287,0.0392,0.2206,28.9347,-6.5007,-126.4720,37.42279871855344,-122.16395876253642,28.9376,1.5312
2024-11-15T22:01:18.495Z,0.1669,-0.1326,-2.8352,0.5096,0.0661,0.1763,28.9347,-6.5007,-126.4720,37.42279871855344,-122.16395876253642,28.9376,1.5312
2024-11-15T22:01:18.506Z,0.2156,-0.1182,-3.1230,0.4594,0.0660,0.1305,29.0306,-6.7952,-126.6531,37.42279871855344,-122.16395876253642,28.9376,1.5312
2024-11-15T22:01:18.517Z,0.2156,-0.1182,-3.1230,0.3971,0.0577,0.0877,29.0626,-7.2066,-126.5006,37.42279871855344,-122.16395876253642,28.9376,1.5312
2024-11-15T22:01:18.526Z,0.1813,-0.0148,-3.2639,0.3257,0.0392,0.0399,29.0626,-7.2066,-126.5006,37.42279871855344,-122.16395876253642,28.9376,1.5312
2024-11-15T22:01:18.537Z,0.1305,0.0032,-3.1243,0.2436,0.0293,-0.0006,29.2784,-7.2642,-126.2890,37.42279871855344,-122.16395876253642,28.9376,1.5312
2024-11-15T22:01:18.545Z,0.1305,0.0032,-3.1243,0.1528,0.0138,-0.0174,29.0721,-7.6458,-126.4724,37.42279871855344,-122.16395876253642,28.9376,1.5312
2024-11-15T22:01:18.556Z,-0.2267,0.0021,-2.6091,0.0689,-0.0248,-0.0198,29.0147,-7.4978,-126.2506,37.42279871855344,-122.16395876253642,28.9376,1.5312
2024-11-15T22:01:18.566Z,-0.4542,0.0964,-2.2790,0.0011,-0.1139,0.0035,29.2243,-7.6134,-126.5338,37.42279871855344,-122.16395876253642,28.9376,1.5312
2024-11-15T22:01:18.576Z,-0.4542,0.0964,-2.2790,-0.0480,-0.2224,0.0476,28.9014,-7.6556,-126.4889,37.42279871855344,-122.16395876253642,28.9376,1.5312
2024-11-15T22:01:18.587Z,-0.6758,0.2721,-1.6162,-0.0665,-0.3211,0.0915,28.6643,-7.5979,-126.0393,37.42279871855344,-122.16395876253642,28.9376,1.5312
2024-11-15T22:01:18.596Z,-0.5679,0.3669,-1.3483,-0.0674,-0.3683,0.1147,28.6789,-7.5087,-126.3824,37.42279871855344,-122.16395876253642,28.9376,1.5312
2024-11-15T22:01:18.606Z,-0.5679,0.3669,-1.3483,-0.0574,-0.3159,0.1108,28.2658,-7.5702,-126.2220,37.42279871855344,-122.16395876253642,28.9376,1.5312
2024-11-15T22:01:18.616Z,0.0365,0.5016,-0.6871,-0.0087,-0.1886,0.0753,28.2093,-7.7432,-126.4814,37.42279871855344,-122.16395876253642,28.9376,1.5312
2024-11-15T22:01:18.626Z,0.3586,0.5670,-0.2555,0.0645,-0.0249,0.0175,28.0729,-7.5612,-126.3692,37.42279871855344,-122.16395876253642,28.9376,1.5312
2024-11-15T22:01:18.637Z,0.3586,0.5670,-0.2555,0.1182,0.1457,-0.0426,28.0697,-7.6119,-126.7444,37.42279871855344,-122.16395876253642,28.9376,1.5312
2024-11-15T22:01:18.645Z,0.6675,0.6988,0.3404,0.1386,0.2416,-0.1050,28.2991,-7.7813,-126.4111,37.42279871855344,-122.16395876253642,28.9376,1.5312
2024-11-15T22:01:18.656Z,0.7657,0.7507,0.4836,0.1195,0.2142,-0.1838,28.1962,-7.5602,-126.4504,37.42279871855344,-122.16395876253642,28.9376,1.5312
2024-11-15T22:01:18.666Z,0.7657,0.7507,0.4836,0.0587,0.0280,-0.2726,28.1875,-7.7740,-126.3179,37.42279871855344,-122.16395876253642,28.9376,1.5312
2024-11-15T22:01:18.676Z,0.6088,0.7366,0.2255,-0.0366,-0.2890,-0.3642,28.1958,-7.6657,-126.1146,37.42279871855344,-122.16395876253642,28.9376,1.5312
2024-11-15T22:01:18.687Z,0.2996,0.6051,0.1160,-0.1550,-0.5671,-0.4411,27.9806,-7.4616,-125.9631,37.42279871855344,-122.16395876253642,28.9376,1.5312
2024-11-15T22:01:18.695Z,0.2996,0.6051,0.1160,-0.2837,-0.7298,-0.4964,27.4446,-7.4571,-126.4398,37.42279871855344,-122.16395876253642,28.9376,1.5312
2024-11-15T22:01:18.706Z,0.4393,0.7582,0.4975,-0.4198,-0.6950,-0.5027,27.0907,-7.0599,-126.8851,37.42279871855344,-122.16395876253642,28.9376,1.5312
2024-11-15T22:01:18.716Z,0.5669,0.9480,0.9672,-0.5427,-0.4806,-0.4301,26.8732,-6.7150,-126.8613,37.42279871855344,-122.16395876253642,28.9376,1.5312
2024-11-15T22:01:18.726Z,0.5669,0.9480,0.9672,-0.6130,-0.1873,-0.2862,26.7951,-6.4281,-126.7456,37.42279871855344,-122.16395876253642,28.9376,1.5312
2024-11-15T22:01:18.736Z,0.0146,0.1822,2.2822,-0.6067,0.0994,-0.1241,26.7029,-5.9921,-127.3367,37.42279871855344,-122.16395876253642,28.9376,1.5312
2024-11-15T22:01:18.745Z,-0.2225,-0.2249,2.9534,-0.6067,0.0994,-0.1241,26.9329,-5.7523,-127.0367,37.42279871855344,-122.16395876253642,28.9376,1.5312
2024-11-15T22:01:18.756Z,-0.2225,-0.2249,2.9534,-0.5075,0.2953,0.0236,26.9085,-5.5072,-126.8927,37.42279871855344,-122.16395876253642,28.9376,1.5312
2024-11-15T22:01:18.766Z,-0.0344,-0.8004,3.7910,-0.0759,0.2450,0.1331,26.9195,-5.5672,-126.6763,37.42279871855344,-122.16395876253642,28.9376,1.5312
2024-11-15T22:01:18.777Z,0.6072,-0.6850,3.4742,0.1169,0.1391,0.0516,27.1785,-5.6260,-126.5502,37.42279871855344,-122.16395876253642,28.9376,1.5312
2024-11-15T22:01:18.787Z,0.6072,-0.6850,3.4742,0.2203,0.1020,-0.0601,27.2136,-5.6533,-126.9162,37.42279871855344,-122.16395876253642,28.9376,1.5312
2024-11-15T22:01:18.795Z,1.5406,-0.2663,1.8520,0.2252,0.1398,-0.1472,27.1130,-5.7525,-126.8921,37.42279871855344,-122.16395876253642,28.9376,1.5312
2024-11-15T22:01:18.806Z,1.5881,-0.1692,0.9252,0.1282,0.2247,-0.1913,27.1130,-5.7525,-126.8921,37.42279871855344,-122.16395876253642,28.9376,1.5312
2024-11-15T22:01:18.816Z,1.5881,-0.1692,0.9252,-0.0347,0.3117,-0.1886,27.4041,-5.5423,-126.5256,37.42279871855344,-122.16395876253642,28.9376,1.5312
2024-11-15T22:01:18.827Z,1.1072,-0.0125,-0.3645,-0.2041,0.3658,-0.1356,27.7625,-5.6613,-126.4061,37.42279871855344,-122.16395876253642,28.9376,1.5312
2024-11-15T22:01:18.837Z,0.7686,0.0950,-0.4613,-0.3268,0.3751,-0.0433,27.7625,-5.6613,-126.4061,37.42279871855344,-122.16395876253642,28.9376,1.5312
2024-11-15T22:01:18.845Z,0.7686,0.0950,-0.4613,-0.3794,0.3905,0.0659,27.7775,-5.3409,-126.6143,37.42279871855344,-122.16395876253642,28.9376,1.5312
2024-11-15T22:01:18.856Z,0.3910,0.0496,-0.0248,-0.3646,0.3937,0.1498,28.0154,-5.2684,-125.8736,37.42279871855344,-122.16395876253642,28.9376,1.5312
2024-11-15T22:01:18.866Z,0.3863,-0.1032,0.1061,-0.3034,0.3942,0.1952,28.0715,-5.3123,-125.7272,37.42279871855344,-122.16395876253642,28.9376,1.5312
2024-11-15T22:01:18.876Z,0.3863,-0.1032,0.1061,-0.2167,0.3767,0.1919,28.0666,-5.0075,-125.7505,37.42279871855344,-122.16395876253642,28.9376,1.5312
2024-11-15T22:01:18.887Z,0.5056,-0.4322,-0.1087,-0.1252,0.3402,0.1545,28.4193,-5.1535,-125.8174,37.42279871855344,-122.16395876253642,28.9376,1.5312
2024-11-15T22:01:18.895Z,0.5056,-0.4322,-0.1087,-0.0525,0.2640,0.0846,28.6008,-4.9528,-125.2896,37.42279871855344,-122.16395876253642,28.9376,1.5312
2024-11-15T22:01:18.906Z,0.6183,-0.4871,-0.4596,-0.0199,0.1538,0.0036,28.9262,-4.9204,-125.7340,37.42279871855344,-122.16395876253642,28.9376,1.5312
2024-11-15T22:01:18.916Z,0.5857,-0.4042,-1.5771,-0.0488,0.0299,-0.0658,28.7682,-4.9283,-125.5697,37.42279871855344,-122.16395876253642,28.9376,1.5312
2024-11-15T22:01:18.926Z,0.4686,-0.3478,-2.1127,-0.1181,-0.0759,-0.1069,28.8363,-4.6794,-125.3090,37.42279871855344,-122.16395876253642,28.9376,1.5312
2024-11-15T22:01:18.937Z,0.4686,-0.3478,-2.1127,-0.1935,-0.1669,-0.1137,28.8133,-4.7652,-125.1300,37.42279871855344,-122.16395876253642,28.9376,1.5312
2024-11-15T22:01:18.946Z,0.1868,-0.2283,-2.5625,-0.2356,-0.2397,-0.0908,28.5558,-4.5356,-125.3488,37.42279871855344,-122.16395876253642,28.9376,1.5312
2024-11-15T22:01:18.957Z,0.1415,-0.0799,-2.4655,-0.2303,-0.2914,-0.0542,28.3941,-4.3181,-125.5133,37.42279871855344,-122.16395876253642,28.9376,1.5312
2024-11-15T22:01:18.966Z,0.1415,-0.0799,-2.4655,-0.1843,-0.3083,-0.0239,28.1708,-3.9602,-125.8457,37.42279871855344,-122.16395876253642,28.9376,1.5312
2024-11-15T22:01:18.976Z,0.3134,0.1408,-2.1236,-0.1079,-0.2803,-0.0046,28.1433,-4.1731,-125.5621,37.42279871855344,-122.16395876253642,28.9376,1.5312
2024-11-15T22:01:18.989Z,0.4634,0.2349,-2.0278,-0.0316,-0.1654,-0.0042,28.0938,-4.0399,-125.7491,37.42279871855344,-122.16395876253642,28.9376,1.5312
2024-11-15T22:01:18.995Z,0.4634,0.2349,-2.0278,0.0450,0.0219,-0.0182,28.1054,-4.1340,-125.7412,37.42279871855344,-122.16395876253642,28.9376,1.5312
2024-11-15T22:01:19.006Z,0.7477,0.2088,-1.4930,0.1169,0.2248,-0.0505,28.1176,-4.1672,-125.9620,37.42279871855344,-122.16395876253642,28.9376,1.5312
2024-11-15T22:01:19.016Z,0.7339,0.1704,-1.0249,0.2051,0.3585,-0.0896,28.2440,-4.2097,-125.7730,37.42279871855344,-122.16395876253642,28.9376,1.5312
2024-11-15T22:01:19.026Z,0.7339,0.1704,-1.0249,0.2877,0.4025,-0.1206,28.5955,-4.2654,-125.5116,37.42279871855344,-122.16395876253642,28.9376,1.5312
2024-11-15T22:01:19.037Z,0.3978,0.3556,-0.2076,0.3594,0.3626,-0.1282,28.6935,-4.3886,-125.4318,37.42279871855344,-122.16395876253642,28.9376,1.5312
2024-11-15T22:01:19.046Z,0.1560,0.3519,0.0523,0.4057,0.2701,-0.1077,28.7037,-4.6207,-125.4007,37.422800851478016,-122.16397563645289,28.9024,1.5423
2024-11-15T22:01:19.056Z,0.1560,0.3519,0.0523,0.4323,0.1542,-0.0746,29.0191,-4.8196,-125.2673,37.422800851478016,-122.16397563645289,28.9024,1.5423
2024-11-15T22:01:19.066Z,-0.2963,0.2519,0.4534,0.4427,0.0428,-0.0329,28.8980,-5.0104,-125.5555,37.422800851478016,-122.16397563645289,28.9024,1.5423
2024-11-15T22:01:19.076Z,-0.3781,0.1657,0.6373,0.4449,-0.0398,0.0056,28.8955,-5.2167,-125.2978,37.422800851478016,-122.16397563645289,28.9024,1.5423
2024-11-15T22:01:19.087Z,-0.3781,0.1657,0.6373,0.4496,-0.0654,0.0335,28.8409,-5.3732,-125.4032,37.422800851478016,-122.16397563645289,28.9024,1.5423
2024-11-15T22:01:19.096Z,-0.1820,0.0903,1.2314,0.4663,-0.0325,0.0318,28.8765,-5.6265,-125.5954,37.422800851478016,-122.16397563645289,28.9024,1.5423
2024-11-15T22:01:19.106Z,0.0430,-0.0026,1.6015,0.4663,-0.0325,0.0318,28.9327,-5.9447,-125.5718,37.422800851478016,-122.16397563645289,28.9024,1.5423
2024-11-15T22:01:19.116Z,0.0430,-0.0026,1.6015,0.5087,0.1930,-0.0082,29.0586,-6.2031,-125.5992,37.422800851478016,-122.16397563645289,28.9024,1.5423
2024-11-15T22:01:19.126Z,0.2376,-0.2179,2.3679,0.5087,0.1930,-0.0082,29.0442,-6.3300,-125.0776,37.422800851478016,-122.16397563645289,28.9024,1.5423
2024-11-15T22:01:19.138Z,0.2317,-0.3038,2.6145,0.5182,0.3017,-0.0314,29.2097,-6.7374,-125.2474,37.422800851478016,-122.16397563645289,28.9024,1.5423
2024-11-15T22:01:19.146Z,0.2317,-0.3038,2.6145,0.4270,0.3719,-0.0283,29.2097,-6.7374,-125.2474,37.422800851478016,-122.16397563645289,28.9024,1.5423
2024-11-15T22:01:19.157Z,-0.2354,-0.5516,2.7477,0.3552,0.2988,0.0043,29.4622,-6.8202,-125.2473,37.422800851478016,-122.16397563645289,28.9024,1.5423
2024-11-15T22:01:19.166Z,-0.2354,-0.5516,2.7477,0.3072,0.1438,0.0206,29.5607,-7.1304,-124.7769,37.422800851478016,-122.16397563645289,28.9024,1.5423
2024-11-15T22:01:19.176Z,-0.4170,-0.6466,2.8418,0.2806,-0.0371,0.0202,29.5803,-7.1137,-124.7224,37.422800851478016,-122.16397563645289,28.9024,1.5423
2024-11-15T22:01:19.188Z,-0.1293,-0.1316,2.9088,0.2458,-0.1328,0.0166,29.8430,-7.3798,-124.7136,37.422800851478016,-122.16397563645289,28.9024,1.5423
2024-11-15T22:01:19.195Z,-0.1293,-0.1316,2.9088,0.2458,-0.1328,0.0166,29.5023,-7.5981,-124.8765,37.422800851478016,-122.16397563645289,28.9024,1.5423
2024-11-15T22:01:19.207Z,0.0385,0.0032,2.8209,0.1350,-0.0315,0.0948,29.5075,-7.6376,-124.9253,37.422800851478016,-122.16397563645289,28.9024,1.5423
2024-11-15T22:01:19.216Z,-0.2202,-0.2964,2.4797,0.0671,0.0911,0.1810,29.6870,-7.5684,-124.9114,37.422800851478016,-122.16397563645289,28.9024,1.5423
2024-11-15T22:01:19.227Z,-0.4753,-0.4758,2.4723,0.0430,0.2007,0.2843,29.5578,-7.6247,-124.8824,37.422800851478016,-122.16397563645289,28.9024,1.5423
2024-11-15T22:01:19.237Z,-0.4753,-0.4758,2.4723,0.0430,0.2007,0.2843,29.6612,-7.7039,-124.5388,37.422800851478016,-122.16397563645289,28.9024,1.5423
2024-11-15T22:01:19.245Z,-0.6484,-0.8210,2.9128,0.1031,0.2387,0.3855,29.7882,-7.7589,-124.4790,37.422800851478016,-122.16397563645289,28.9024,1.5423
2024-11-15T22:01:19.256Z,-0.6484,-0.8210,2.9128,0.2261,0.2206,0.4518,29.7531,-8.0145,-124.7614,37.422800851478016,-122.16397563645289,28.9024,1.5423
2024-11-15T22:01:19.266Z,-0.3757,-0.8395,2.9035,0.3689,0.1793,0.4668,30.1280,-8.3488,-124.6783,37.422800851478016,-122.16397563645289,28.9024,1.5423
2024-11-15T22:01:19.276Z,0.4111,-0.7800,1.6988,0.5577,0.1439,0.3202,30.0172,-8.6958,-124.6950,37.422800851478016,-122.16397563645289,28.9024,1.5423
2024-11-15T22:01:19.288Z,0.7884,-0.7033,0.8229,0.5577,0.1439,0.3202,30.0518,-9.0250,-124.5923,37.422800851478016,-122.16397563645289,28.9024,1.5423
2024-11-15T22:01:19.295Z,0.7884,-0.7033,0.8229,0.5764,0.1699,0.1884,30.3258,-9.2818,-124.3755,37.422800851478016,-122.16397563645289,28.9024,1.5423
2024-11-15T22:01:19.306Z,0.9765,-0.3531,-1.0060,0.5254,0.2018,0.0559,30.3155,-9.7930,-124.3412,37.422800851478016,-122.16397563645289,28.9024,1.5423
2024-11-15T22:01:19.316Z,0.9765,-0.3531,-1.0060,0.2537,0.2724,-0.0772,30.4557,-9.8109,-124.3678,37.422800851478016,-122.16397563645289,28.9024,1.5423
2024-11-15T22:01:19.326Z,0.8229,-0.2483,-1.7398,0.2537,0.2724,-0.0772,30.3954,-9.9658,-124.2000,37.422800851478016,-122.16397563645289,28.9024,1.5423
2024-11-15T22:01:19.337Z,0.0399,-0.1510,-2.5488,0.0750,0.2964,-0.0561,30.5771,-10.1358,-123.9729,37.422800851478016,-122.16397563645289,28.9024,1.5423
2024-11-15T22:01:19.345Z,0.0399,-0.1510,-2.5488,-0.1136,0.3036,0.0214,30.9883,-9.8384,-124.0166,37.422800851478016,-122.16397563645289,28.9024,1.5423
2024-11-15T22:01:19.356Z,-0.3998,-0.2357,-2.6815,-0.2873,0.3036,0.1354,31.0667,-10.0479,-124.1463,37.422800851478016,-122.16397563645289,28.9024,1.5423
2024-11-15T22:01:19.366Z,-0.9549,-0.5948,-2.3813,-0.4272,0.2658,0.2541,31.2010,-9.7483,-123.8514,37.422800851478016,-122.16397563645289,28.9024,1.5423
2024-11-15T22:01:19.376Z,-0.9549,-0.5948,-2.3813,-0.5061,0.1758,0.3423,31.3624,-9.6386,-123.7882,37.422800851478016,-122.16397563645289,28.9024,1.5423
2024-11-15T22:01:19.388Z,-0.9733,-0.6761,-2.1120,-0.5175,0.0323,0.3917,31.2113,-9.2335,-124.0679,37.422800851478016,-122.16397563645289,28.9024,1.5423
2024-11-15T22:01:19.395Z,-0.5460,-0.7493,-1.6230,-0.4515,-0.1414,0.3911,31.1042,-9.1984,-124.0232,37.422800851478016,-122.16397563645289,28.9024,1.5423
2024-11-15T22:01:19.406Z,-0.5460,-0.7493,-1.6230,-0.3351,-0.3027,0.3322,30.8867,-9.2473,-124.2087,37.422800851478016,-122.16397563645289,28.9024,1.5423
2024-11-15T22:01:19.416Z,-0.2436,-0.6438,-1.5929,-0.2106,-0.4069,0.2441,30.5142,-9.2493,-124.3975,37.422800851478016,-122.16397563645289,28.9024,1.5423
2024-11-15T22:01:19.426Z,0.2243,-0.5302,-2.0674,-0.1149,-0.4200,0.1602,30.6380,-9.1610,-124.4993,37.422800851478016,-122.16397563645289,28.9024,1.5423
2024-11-15T22:01:19.439Z,0.2729,-0.4541,-2.3081,-0.0611,-0.3706,0.1010,30.1141,-9.2707,-124.3585,37.422800851478016,-122.16397563645289,28.9024,1.5423
2024-11-15T22:01:19.446Z,0.2729,-0.4541,-2.3081,-0.0305,-0.2965,0.0658,30.2896,-9.0812,-124.4994,37.422800851478016,-122.16397563645289,28.9024,1.5423
2024-11-15T22:01:19.456Z,0.2511,-0.1969,-2.6030,-0.0138,-0.2279,0.0499,30.1474,-9.0684,-124.5503,37.422800851478016,-122.16397563645289,28.9024,1.5423
2024-11-15T22:01:19.467Z,0.2511,-0.1969,-2.6030,-0.0168,-0.1680,0.0532,29.9494,-9.2354,-124.7084,37.422800851478016,-122.16397563645289,28.9024,1.5423
2024-11-15T22:01:19.476Z,0.0804,-0.1440,-2.6251,-0.0275,-0.1384,0.0737,29.7028,-9.1004,-124.6492,37.422800851478016,-122.16397563645289,28.9024,1.5423
2024-11-15T22:01:19.487Z,-0.2042,-0.0826,-2.4446,-0.0368,-0.1480,0.1036,29.7028,-9.1004,-124.6492,37.422800851478016,-122.16397563645289,28.9024,1.5423
2024-11-15T22:01:19.495Z,-0.2042,-0.0826,-2.4446,-0.0451,-0.1795,0.1301,29.6770,-9.1600,-124.6772,37.422800851478016,-122.16397563645289,28.9024,1.5423
2024-11-15T22:01:19.506Z,-0.1608,0.0460,-2.3190,-0.0550,-0.2282,0.1249,29.7856,-9.0853,-124.6617,37.422800851478016,-122.16397563645289,28.9024,1.5423
2024-11-15T22:01:19.516Z,0.0314,0.2588,-2.1845,-0.0838,-0.2716,0.1018,29.5926,-9.0555,-124.4888,37.422800851478016,-122.16397563645289,28.9024,1.5423
2024-11-15T22:01:19.526Z,0.0314,0.2588,-2.1845,-0.1240,-0.3154,0.0591,29.2640,-9.0899,-125.2360,37.422800851478016,-122.16397563645289,28.9024,1.5423
2024-11-15T22:01:19.537Z,0.0769,0.3454,-2.1179,-0.1722,-0.3171,-0.0016,29.3314,-9.0468,-125.2782,37.422800851478016,-122.16397563645289,28.9024,1.5423
2024-11-15T22:01:19.545Z,-0.0424,0.3892,-1.2974,-0.2016,-0.2874,-0.0727,29.0795,-9.0081,-124.9650,37.422800851478016,-122.16397563645289,28.9024,1.5423
2024-11-15T22:01:19.556Z,-0.0424,0.3892,-1.2974,-0.1917,-0.2362,-0.1390,28.9829,-8.8254,-125.1935,37.422800851478016,-122.16397563645289,28.9024,1.5423
2024-11-15T22:01:19.566Z,-0.2107,0.4088,-0.6909,-0.1290,-0.1587,-0.1820,28.8954,-8.4425,-125.1750,37.422800851478016,-122.16397563645289,28.9024,1.5423
2024-11-15T22:01:19.576Z,-0.3873,0.5548,0.9307,-0.0176,-0.0481,-0.1995,28.7869,-8.6568,-125.2141,37.422800851478016,-122.16397563645289,28.9024,1.5423
2024-11-15T22:01:19.587Z,-0.3873,0.5548,0.9307,0.1424,0.1050,-0.1895,28.9987,-8.6461,-125.1024,37.422800851478016,-122.16397563645289,28.9024,1.5423
2024-11-15T22:01:19.595Z,-0.3004,0.5367,1.7562,0.3138,0.2872,-0.1761,29.0029,-8.9998,-125.1787,37.422800851478016,-122.16397563645289,28.9024,1.5423
2024-11-15T22:01:19.605Z,0.0641,0.5134,2.5693,0.4568,0.4578,-0.1817,29.3338,-8.9926,-125.1555,37.422800851478016,-122.16397563645289,28.9024,1.5423
2024-11-15T22:01:19.616Z,0.0641,0.5134,2.5693,0.5309,0.5800,-0.2151,29.8438,-9.2166,-124.8642,37.422800851478016,-122.16397563645289,28.9024,1.5423
2024-11-15T22:01:19.626Z,0.2454,0.5164,2.6193,0.5138,0.6243,-0.2453,30.3181,-9.5185,-125.0041,37.422800851478016,-122.16397563645289,28.9024,1.5423
2024-11-15T22:01:19.636Z,-0.1224,0.4398,2.3667,0.4130,0.5528,-0.2618,30.3321,-9.5332,-124.8974,37.422800851478016,-122.16397563645289,28.9024,1.5423
2024-11-15T22:01:19.645Z,-0.1224,0.4398,2.3667,0.2493,0.3708,-0.2633,30.6826,-9.5130,-124.8090,37.422800851478016,-122.16397563645289,28.9024,1.5423
2024-11-15T22:01:19.656Z,-0.2795,0.4709,2.2026,0.0531,0.1377,-0.2612,30.7338,-9.4713,-124.5604,37.422800851478016,-122.16397563645289,28.9024,1.5423
2024-11-15T22:01:19.666Z,-0.2541,0.9569,2.3170,-0.1473,-0.0535,-0.2659,30.6451,-9.3839,-124.4712,37.422800851478016,-122.16397563645289,28.9024,1.5423
2024-11-15T22:01:19.676Z,-0.2541,0.9569,2.3170,-0.3259,-0.1216,-0.2447,30.6530,-9.0436,-124.4443,37.422800851478016,-122.16397563645289,28.9024,1.5423
2024-11-15T22:01:19.687Z,-0.4035,0.8878,2.5713,-0.4573,-0.0680,-0.1859,30.7042,-8.7329,-124.8599,37.422800851478016,-122.16397563645289,28.9024,1.5423
2024-11-15T22:01:19.695Z,-1.3023,-0.1073,3.4093,-0.4953,0.0387,-0.0932,30.8648,-8.7573,-124.8171,37.422800851478016,-122.16397563645289,28.9024,1.5423
2024-11-15T22:01:19.706Z,-1.3023,-0.1073,3.4093,-0.4249,0.0864,0.0300,30.7816,-8.4029,-124.7017,37.422800851478016,-122.16397563645289,28.9024,1.5423
2024-11-15T22:01:19.716Z,-1.7312,-0.7159,3.6871,-0.2395,-0.0242,0.1388,30.7500,-8.3618,-124.7272,37.422800851478016,-122.16397563645289,28.9024,1.5423
2024-11-15T22:01:19.726Z,-1.2533,-1.0439,3.0335,0.0375,-0.2405,0.1897,30.7388,-8.3760,-124.5980,37.422800851478016,-122.16397563645289,28.9024,1.5423
2024-11-15T22:01:19.737Z,-1.2533,-1.0439,3.0335,0.3124,-0.4424,0.1523,30.3008,-8.5471,-124.5566,37.422800851478016,-122.16397563645289,28.9024,1.5423
2024-11-15T22:01:19.745Z,-0.3984,-0.7562,2.0183,0.5006,-0.5139,0.0756,30.1973,-9.0419,-124.9568,37.422800851478016,-122.16397563645289,28.9024,1.5423
2024-11-15T22:01:19.755Z,0.9434,-0.1461,-0.3044,0.5733,-0.4411,-0.0018,30.1973,-9.0419,-124.9568,37.422800851478016,-122.16397563645289,28.9024,1.5423
2024-11-15T22:01:19.766Z,0.9434,-0.1461,-0.3044,0.5118,-0.2181,-0.0477,29.8360,-9.3548,-125.2179,37.422800851478016,-122.16397563645289,28.9024,1.5423
2024-11-15T22:01:19.776Z,1.1598,-0.0268,-1.3104,0.3359,0.0997,-0.0663,30.1701,-9.4622,-125.0060,37.422800851478016,-122.16397563645289,28.9024,1.5423
2024-11-15T22:01:19.788Z,0.8772,0.1373,-2.3271,0.1029,0.3955,-0.0524,30.3506,-9.2260,-124.9269,37.422800851478016,-122.16397563645289,28.9024,1.5423
2024-11-15T22:01:19.795Z,0.8772,0.1373,-2.3271,-0.1173,0.5492,0.0061,30.3506,-9.2260,-124.9269,37.422800851478016,-122.16397563645289,28.9024,1.5423
2024-11-15T22:01:19.806Z,0.4092,0.1446,-2.2606,-0.2767,0.5113,0.0933,30.5080,-9.2986,-124.6583,37.422800851478016,-122.16397563645289,28.9024,1.5423
2024-11-15T22:01:19.816Z,-0.2805,-0.0509,-1.6887,-0.3750,0.3580,0.1967,30.8775,-9.1752,-124.4318,37.422800851478016,-122.16397563645289,28.9024,1.5423
2024-11-15T22:01:19.826Z,-0.2805,-0.0509,-1.6887,-0.4286,0.1728,0.2845,30.8656,-9.0229,-124.5669,37.422800851478016,-122.16397563645289,28.9024,1.5423
2024-11-15T22:01:19.837Z,-0.2749,-0.1979,-1.5020,-0.4496,0.0207,0.3248,30.9510,-8.7212,-124.5116,37.422800851478016,-122.16397563645289,28.9024,1.5423
2024-11-15T22:01:19.845Z,0.1948,-0.4536,-1.3860,-0.4606,-0.0566,0.3188,30.8889,-8.7681,-124.5242,37.422800851478016,-122.16397563645289,28.9024,1.5423
2024-11-15T22:01:19.855Z,0.1948,-0.4536,-1.3860,-0.4534,-0.0536,0.2945,30.9313,-8.6964,-124.3159,37.422800851478016,-122.16397563645289,28.9024,1.5423
2024-11-15T22:01:19.866Z,0.3761,-0.5328,-1.3413,-0.4202,0.0132,0.2661,30.7443,-8.4330,-124.4059,37.422800851478016,-122.16397563645289,28.9024,1.5423
2024-11-15T22:01:19.875Z,0.3719,-0.6908,-1.1664,-0.3580,0.0874,0.2392,30.8605,-8.2443,-124.3342,37.422800851478016,-122.16397563645289,28.9024,1.5423
2024-11-15T22:01:19.887Z,0.3719,-0.6908,-1.1664,-0.2690,0.1128,0.2225,31.0392,-8.1873,-124.3617,37.422800851478016,-122.16397563645289,28.9024,1.5423
2024-11-15T22:01:19.895Z,0.3046,-0.7017,-1.1648,-0.1477,0.0634,0.1986,31.3410,-8.1758,-124.4700,37.422800851478016,-122.16397563645289,28.9024,1.5423
2024-11-15T22:01:19.906Z,0.2813,-0.5996,-1.5940,-0.0145,-0.0337,0.1725,30.9541,-8.0103,-124.6412,37.422800851478016,-122.16397563645289,28.9024,1.5423
2024-11-15T22:01:19.916Z,0.2813,-0.5996,-1.5940,0.0815,-0.1214,0.1509,30.9018,-8.1024,-124.3443,37.422800851478016,-122.16397563645289,28.9024,1.5423
2024-11-15T22:01:19.926Z,0.2755,-0.5887,-2.0163,0.1202,-0.1664,0.1418,30.7522,-8.1373,-124.2670,37.422800851478016,-122.16397563645289,28.9024,1.5423
2024-11-15T22:01:19.937Z,0.4137,-0.4690,-2.7549,0.1184,-0.1889,0.1422,30.7907,-8.3843,-124.6810,37.422800851478016,-122.16397563645289,28.9024,1.5423
2024-11-15T22:01:19.945Z,0.4137,-0.4690,-2.7549,0.0969,-0.2042,0.1421,30.6725,-8.3798,-124.7496,37.422800851478016,-122.16397563645289,28.9024,1.5423
2024-11-15T22:01:19.955Z,0.4949,-0.3113,-2.8562,0.0740,-0.2065,0.1356,30.5818,-8.4558,-124.7713,37.422800851478016,-122.16397563645289,28.9024,1.5423
2024-11-15T22:01:19.966Z,0.7850,-0.0602,-2.5568,0.0481,-0.1704,0.1240,30.6070,-8.3749,-124.7331,37.422800851478016,-122.16397563645289,28.9024,1.5423
2024-11-15T22:01:19.976Z,0.7850,-0.0602,-2.5568,0.0225,-0.0961,0.1074,30.4334,-8.5501,-124.5757,37.422800851478016,-122.16397563645289,28.9024,1.5423
2024-11-15T22:01:19.987Z,0.9768,0.0199,-2.1390,0.0162,-0.0071,0.0765,30.3663,-8.5089,-124.5239,37.422800851478016,-122.16397563645289,28.9024,1.5423
2024-11-15T22:01:19.996Z,1.1380,0.2025,-1.0950,0.0349,0.0594,0.0317,30.4587,-8.5929,-124.3014,37.422800851478016,-122.16397563645289,28.9024,1.5423
2024-11-15T22:01:20.006Z,1.1380,0.2025,-1.0950,0.0645,0.0822,-0.0193,30.4201,-8.4945,-124.3771,37.422800851478016,-122.16397563645289,28.9024,1.5423
2024-11-15T22:01:20.016Z,1.0816,0.2920,-0.6214,0.0934,0.0706,-0.0546,30.6413,-8.5124,-124.6778,37.422800851478016,-122.16397563645289,28.9024,1.5423
2024-11-15T22:01:20.026Z,0.6248,0.3414,0.0191,0.1052,0.0391,-0.0709,30.5181,-8.6360,-124.1412,37.422800851478016,-122.16397563645289,28.9024,1.5423
2024-11-15T22:01:20.037Z,0.6248,0.3414,0.0191,0.1020,-0.0270,-0.0600,30.4586,-8.5127,-124.8537,37.422802596130076,-122.16399452547374,28.8475,1.5065
2024-11-15T22:01:20.045Z,0.3324,0.2995,0.2754,0.0838,-0.1181,-0.0215,30.5760,-8.6432,-124.5985,37.422802596130076,-122.16399452547374,28.8475,1.5065
2024-11-15T22:01:20.056Z,-0.2447,0.1726,0.8548,0.0541,-0.1878,0.0445,30.2866,-8.6484,-124.7742,37.422802596130076,-122.16399452547374,28.8475,1.5065
2024-11-15T22:01:20.066Z,-0.2447,0.1726,0.8548,0.0484,-0.2057,0.1238,30.1026,-8.7145,-124.4736,37.422802596130076,-122.16399452547374,28.8475,1.5065
2024-11-15T22:01:20.076Z,-0.2641,0.1158,1.3307,0.0706,-0.1651,0.1910,30.2888,-8.9686,-124.5424,37.422802596130076,-122.16399452547374,28.8475,1.5065
2024-11-15T22:01:20.088Z,0.4000,0.2508,2.1382,0.1356,-0.1090,0.2226,30.2888,-8.9686,-124.5424,37.422802596130076,-122.16399452547374,28.8475,1.5065
2024-11-15T22:01:20.095Z,0.4000,0.2508,2.1382,0.1869,-0.0526,0.2038,30.0471,-9.2144,-124.7878,37.422802596130076,-122.16399452547374,28.8475,1.5065
2024-11-15T22:01:20.106Z,0.7501,0.2641,2.1829,0.1912,0.0043,0.1494,30.2941,-9.3960,-124.5704,37.422802596130076,-122.16399452547374,28.8475,1.5065
2024-11-15T22:01:20.117Z,0.7854,0.0623,1.8735,0.1274,0.0654,0.0869,30.2941,-9.3960,-124.5704,37.422802596130076,-122.16399452547374,28.8475,1.5065
2024-11-15T22:01:20.127Z,0.7854,0.0623,1.8735,0.0116,0.1429,0.0533,30.3175,-9.3473,-124.4379,37.422802596130076,-122.16399452547374,28.8475,1.5065
2024-11-15T22:01:20.138Z,0.4899,-0.1435,2.0319,-0.0958,0.1915,0.0432,30.3175,-9.3473,-124.4379,37.422802596130076,-122.16399452547374,28.8475,1.5065
2024-11-15T22:01:20.146Z,-0.3646,-0.7363,3.1244,-0.1406,0.1446,0.0479,30.5561,-9.2968,-124.6644,37.422802596130076,-122.16399452547374,28.8475,1.5065
2024-11-15T22:01:20.156Z,-0.3646,-0.7363,3.1244,-0.0969,0.0078,0.0593,30.5731,-9.2178,-124.5753,37.422802596130076,-122.16399452547374,28.8475,1.5065
2024-11-15T22:01:20.165Z,-0.6610,-0.9247,3.8121,0.0573,-0.1785,0.0582,30.5975,-9.2413,-124.7587,37.422802596130076,-122.16399452547374,28.8475,1.5065
2024-11-15T22:01:20.176Z,-0.3292,-0.6020,4.3739,0.2853,-0.3401,0.0236,30.5101,-9.3351,-124.8751,37.422802596130076,-122.16399452547374,28.8475,1.5065
2024-11-15T22:01:20.187Z,-0.3292,-0.6020,4.3739,0.4982,-0.3952,-0.0297,30.1809,-9.5932,-124.9133,37.422802596130076,-122.16399452547374,28.8475,1.5065
2024-11-15T22:01:20.195Z,-0.1554,-0.5328,3.8280,0.6200,-0.3387,-0.0632,30.0270,-9.6270,-124.7330,37.422802596130076,-122.16399452547374,28.8475,1.5065
2024-11-15T22:01:20.207Z,-0.0954,-0.4384,1.8400,0.6372,-0.2266,-0.0674,30.0075,-10.1354,-124.7120,37.422802596130076,-122.16399452547374,28.8475,1.5065
2024-11-15T22:01:20.216Z,-0.0954,-0.4384,1.8400,0.5523,-0.1046,-0.0387,29.7863,-10.3194,-124.5709,37.422802596130076,-122.16399452547374,28.8475,1.5065
2024-11-15T22:01:20.226Z,-0.1255,-0.1510,0.9223,0.3857,-0.0332,0.0265,29.8734,-10.8312,-124.9670,37.422802596130076,-122.16399452547374,28.8475,1.5065
2024-11-15T22:01:20.238Z,-0.3607,0.0517,-0.1727,0.1868,-0.0294,0.1184,29.7892,-10.9466,-124.7579,37.422802596130076,-122.16399452547374,28.8475,1.5065
2024-11-15T22:01:20.246Z,-0.3607,0.0517,-0.1727,-0.0034,-0.0653,0.1957,29.8442,-11.0777,-124.9736,37.422802596130076,-122.16399452547374,28.8475,1.5065
2024-11-15T22:01:20.256Z,-0.4434,-0.0862,-0.3245,-0.1596,-0.0846,0.2331,29.7728,-10.9944,-124.9488,37.422802596130076,-122.16399452547374,28.8475,1.5065
2024-11-15T22:01:20.266Z,-0.4434,-0.0862,-0.3245,-0.2729,-0.0958,0.2209,29.5316,-10.8739,-124.8613,37.422802596130076,-122.16399452547374,28.8475,1.5065
2024-11-15T22:01:20.276Z,-0.3532,-0.4731,-0.1416,-0.3317,-0.1131,0.1802,29.3106,-10.6622,-124.8922,37.422802596130076,-122.16399452547374,28.8475,1.5065
2024-11-15T22:01:20.287Z,-0.3050,-0.4220,-0.0088,-0.3514,-0.1191,0.1296,29.2299,-10.5488,-125.0691,37.422802596130076,-122.16399452547374,28.8475,1.5065
2024-11-15T22:01:20.296Z,-0.3050,-0.4220,-0.0088,-0.3480,-0.1100,0.0984,29.2647,-10.5453,-125.0725,37.422802596130076,-122.16399452547374,28.8475,1.5065
2024-11-15T22:01:20.306Z,-0.2495,-0.2785,-0.0072,-0.3238,-0.0694,0.0912,29.1695,-10.2907,-124.9736,37.422802596130076,-122.16399452547374,28.8475,1.5065
2024-11-15T22:01:20.316Z,-0.2611,-0.2015,-0.1719,-0.3006,0.0078,0.1093,29.1595,-10.3217,-124.8967,37.422802596130076,-122.16399452547374,28.8475,1.5065
2024-11-15T22:01:20.326Z,-0.2559,-0.3009,-0.5906,-0.2785,0.0807,0.1388,29.2030,-9.9919,-125.0797,37.422802596130076,-122.16399452547374,28.8475,1.5065
2024-11-15T22:01:20.338Z,-0.2559,-0.3009,-0.5906,-0.2479,0.1230,0.1712,29.2070,-10.0311,-124.9971,37.422802596130076,-122.16399452547374,28.8475,1.5065
2024-11-15T22:01:20.345Z,-0.1364,-0.2988,-0.7923,-0.1994,0.1009,0.1862,29.3151,-9.7303,-125.0161,37.422802596130076,-122.16399452547374,28.8475,1.5065
2024-11-15T22:01:20.356Z,-0.1364,-0.2988,-0.7923,-0.1506,0.0278,0.1724,29.2810,-9.7867,-124.9066,37.422802596130076,-122.16399452547374,28.8475,1.5065
2024-11-15T22:01:20.366Z,0.2867,-0.1899,-1.4092,-0.1090,-0.0612,0.1450,29.0937,-9.9525,-125.1249,37.422802596130076,-122.16399452547374,28.8475,1.5065
2024-11-15T22:01:20.376Z,0.4207,-0.1335,-1.8073,-0.0860,-0.1211,0.1077,29.1099,-9.6787,-124.5747,37.422802596130076,-122.16399452547374,28.8475,1.5065
2024-11-15T22:01:20.389Z,0.7571,-0.0234,-2.4706,-0.0809,-0.1338,0.0630,28.7564,-9.7031,-125.3142,37.422802596130076,-122.16399452547374,28.8475,1.5065
2024-11-15T22:01:20.395Z,0.7571,-0.0234,-2.4706,-0.0909,-0.1125,0.0164,28.9125,-9.4696,-124.5825,37.422802596130076,-122.16399452547374,28.8475,1.5065
2024-11-15T22:01:20.406Z,0.8649,0.0410,-2.6301,-0.1014,-0.0596,-0.0292,28.9347,-9.7034,-125.1620,37.422802596130076,-122.16399452547374,28.8475,1.5065
2024-11-15T22:01:20.416Z,0.8649,0.0410,-2.6301,-0.0990,0.0132,-0.0640,28.9240,-9.4949,-124.9063,37.422802596130076,-122.16399452547374,28.8475,1.5065
2024-11-15T22:01:20.426Z,0.8419,0.2459,-2.5059,-0.0853,0.0611,-0.0809,28.7547,-9.5790,-125.2530,37.422802596130076,-122.16399452547374,28.8475,1.5065
2024-11-15T22:01:20.437Z,0.7029,0.3106,-2.4491,-0.0739,0.0787,-0.0796,28.7547,-9.5790,-125.2530,37.422802596130076,-122.16399452547374,28.8475,1.5065
2024-11-15T22:01:20.445Z,0.7029,0.3106,-2.4491,-0.0720,0.0637,-0.0668,28.9826,-9.6442,-125.3025,37.422802596130076,-122.16399452547374,28.8475,1.5065
2024-11-15T22:01:20.456Z,0.3624,0.3431,-2.3833,-0.0860,0.0299,-0.0523,29.0730,-9.6276,-125.2853,37.422802596130076,-122.16399452547374,28.8475,1.5065
2024-11-15T22:01:20.467Z,0.3144,0.3452,-2.3599,-0.1210,0.0064,-0.0368,29.1216,-9.2995,-125.2882,37.422802596130076,-122.16399452547374,28.8475,1.5065
2024-11-15T22:01:20.476Z,0.3144,0.3452,-2.3599,-0.1727,-0.0200,-0.0314,29.2022,-9.1903,-125.6049,37.422802596130076,-122.16399452547374,28.8475,1.5065
2024-11-15T22:01:20.487Z,0.2969,0.3034,-2.3137,-0.2297,-0.0361,-0.0377,29.1828,-9.1600,-125.4979,37.422802596130076,-122.16399452547374,28.8475,1.5065
2024-11-15T22:01:20.495Z,0.3383,0.2755,-2.1104,-0.2676,-0.0483,-0.0579,29.0095,-8.8312,-125.3983,37.422802596130076,-122.16399452547374,28.8475,1.5065
2024-11-15T22:01:20.506Z,0.3383,0.2755,-2.1104,-0.2691,-0.0506,-0.0932,28.9745,-8.7840,-125.4233,37.422802596130076,-122.16399452547374,28.8475,1.5065
2024-11-15T22:01:20.516Z,0.4286,0.1684,-1.2000,-0.2276,-0.0533,-0.1400,29.1018,-8.6216,-125.3764,37.422802596130076,-122.16399452547374,28.8475,1.5065
2024-11-15T22:01:20.526Z,0.5232,0.1191,-0.5916,-0.1363,-0.0461,-0.2062,28.8846,-8.4706,-125.6536,37.422802596130076,-122.16399452547374,28.8475,1.5065
2024-11-15T22:01:20.538Z,0.6538,0.0609,0.4394,-0.0020,-0.0367,-0.2782,28.9183,-8.4933,-125.4984,37.422802596130076,-122.16399452547374,28.8475,1.5065
2024-11-15T22:01:20.545Z,0.6538,0.0609,0.4394,0.1464,-0.0041,-0.3531,28.9778,-8.4541,-125.2206,37.422802596130076,-122.16399452547374,28.8475,1.5065
2024-11-15T22:01:20.555Z,0.6480,0.0639,0.7420,0.2652,0.0702,-0.4122,28.6355,-8.4594,-125.4608,37.422802596130076,-122.16399452547374,28.8475,1.5065
2024-11-15T22:01:20.566Z,0.6480,0.0639,0.7420,0.3245,0.1593,-0.4584,28.7901,-8.4329,-125.4711,37.422802596130076,-122.16399452547374,28.8475,1.5065
2024-11-15T22:01:20.576Z,0.5270,0.0663,1.0473,0.3352,0.2460,-0.4933,28.9301,-8.4531,-125.3901,37.422802596130076,-122.16399452547374,28.8475,1.5065
2024-11-15T22:01:20.587Z,0.4122,0.1406,1.3175,0.3164,0.2960,-0.5133,29.1185,-8.6820,-125.6004,37.422802596130076,-122.16399452547374,28.8475,1.5065
2024-11-15T22:01:20.595Z,0.4122,0.1406,1.3175,0.2859,0.2959,-0.5050,29.3835,-8.6422,-125.1804,37.422802596130076,-122.16399452547374,28.8475,1.5065
2024-11-15T22:01:20.606Z,-0.0053,0.3597,2.1697,0.2494,0.2461,-0.4742,29.3731,-8.6784,-125.2781,37.422802596130076,-122.16399452547374,28.8475,1.5065
2024-11-15T22:01:20.616Z,-0.2864,0.2996,2.5523,0.2092,0.1385,-0.4473,29.5027,-8.8610,-125.3375,37.422802596130076,-122.16399452547374,28.8475,1.5065
2024-11-15T22:01:20.626Z,-0.2864,0.2996,2.5523,0.1709,-0.0326,-0.4340,29.4382,-8.4950,-125.3220,37.422802596130076,-122.16399452547374,28.8475,1.5065
2024-11-15T22:01:20.637Z,-0.7035,-0.1659,2.9211,0.1452,-0.2790,-0.4534,29.4085,-8.7426,-125.6235,37.422802596130076,-122.16399452547374,28.8475,1.5065
2024-11-15T22:01:20.645Z,-0.4934,-0.0771,2.8503,0.1045,-0.4936,-0.5098,28.9522,-8.5968,-125.4243,37.422802596130076,-122.16399452547374,28.8475,1.5065
2024-11-15T22:01:20.656Z,-0.4934,-0.0771,2.8503,0.0217,-0.5728,-0.5684,28.7628,-8.5174,-125.6983,37.422802596130076,-122.16399452547374,28.8475,1.5065
2024-11-15T22:01:20.666Z,0.2962,0.4470,2.4117,-0.0853,-0.4996,-0.5797,28.6209,-8.2332,-125.5703,37.422802596130076,-122.16399452547374,28.8475,1.5065
2024-11-15T22:01:20.676Z,0.1616,0.1666,2.2720,-0.1533,-0.3432,-0.5578,28.4845,-8.2507,-126.0039,37.422802596130076,-122.16399452547374,28.8475,1.5065
2024-11-15T22:01:20.687Z,0.1616,0.1666,2.2720,-0.1451,-0.1668,-0.5255,28.1877,-7.8549,-125.8182,37.422802596130076,-122.16399452547374,28.8475,1.5065
2024-11-15T22:01:20.695Z,-0.0539,-0.0127,2.7538,-0.0426,-0.0325,-0.4672,28.3190,-7.8592,-125.8600,37.422802596130076,-122.16399452547374,28.8475,1.5065
2024-11-15T22:01:20.707Z,-0.3244,-0.3188,3.0039,0.1176,0.0445,-0.3907,28.2882,-7.7233,-125.9054,37.422802596130076,-122.16399452547374,28.8475,1.5065
2024-11-15T22:01:20.716Z,-0.3244,-0.3188,3.0039,0.2757,0.1017,-0.3215,28.1210,-7.8042,-126.2251,37.422802596130076,-122.16399452547374,28.8475,1.5065
2024-11-15T22:01:20.726Z,-0.3334,-0.5257,2.4523,0.3754,0.1579,-0.2766,28.2060,-8.0891,-125.6184,37.422802596130076,-122.16399452547374,28.8475,1.5065
2024-11-15T22:01:20.737Z,-0.1180,-0.5181,1.6681,0.3975,0.2025,-0.2459,28.4476,-8.2530,-126.1226,37.422802596130076,-122.16399452547374,28.8475,1.5065
2024-11-15T22:01:20.746Z,-0.1180,-0.5181,1.6681,0.3577,0.2026,-0.2301,28.4504,-8.1720,-125.7901,37.422802596130076,-122.16399452547374,28.8475,1.5065
2024-11-15T22:01:20.756Z,0.0666,-0.3997,-0.0262,0.2649,0.1625,-0.2176,28.4288,-8.1941,-125.4346,37.422802596130076,-122.16399452547374,28.8475,1.5065
2024-11-15T22:01:20.766Z,0.0688,-0.2962,-0.7817,0.1261,0.1023,-0.1957,28.5470,-8.2150,-125.6134,37.422802596130076,-122.16399452547374,28.8475,1.5065
2024-11-15T22:01:20.776Z,0.0688,-0.2962,-0.7817,-0.0418,0.0475,-0.1421,28.5470,-8.2150,-125.6134,37.422802596130076,-122.16399452547374,28.8475,1.5065
2024-11-15T22:01:20.787Z,-0.1031,-0.1144,-1.7990,-0.2112,0.0064,-0.0639,28.5146,-8.2396,-125.4292,37.422802596130076,-122.16399452547374,28.8475,1.5065
2024-11-15T22:01:20.795Z,-0.2482,-0.1017,-2.0686,-0.3543,-0.0038,0.0367,28.4086,-8.0963,-125.5658,37.422802596130076,-122.16399452547374,28.8475,1.5065
2024-11-15T22:01:20.806Z,-0.2482,-0.1017,-2.0686,-0.4617,0.0200,0.1334,28.5619,-7.8572,-125.6199,37.422802596130076,-122.16399452547374,28.8475,1.5065
2024-11-15T22:01:20.815Z,-0.4138,-0.3365,-2.0579,-0.5145,0.0722,0.2184,28.3378,-7.6422,-125.6850,37.422802596130076,-122.16399452547374,28.8475,1.5065
2024-11-15T22:01:20.826Z,-0.4058,-0.4600,-1.8866,-0.5096,0.1345,0.2803,28.5287,-7.4610,-125.4609,37.422802596130076,-122.16399452547374,28.8475,1.5065
2024-11-15T22:01:20.837Z,-0.4058,-0.4600,-1.8866,-0.4485,0.1630,0.3175,28.4313,-7.1901,-125.5766,37.422802596130076,-122.16399452547374,28.8475,1.5065
2024-11-15T22:01:20.845Z,-0.2939,-0.7176,-1.5769,-0.3397,0.1465,0.3190,28.4501,-6.9408,-125.4037,37.422802596130076,-122.16399452547374,28.8475,1.5065
2024-11-15T22:01:20.856Z,-0.1653,-0.7548,-1.6126,-0.2123,0.0924,0.2809,28.5069,-6.9575,-125.3419,37.422802596130076,-122.16399452547374,28.8475,1.5065
2024-11-15T22:01:20.866Z,-0.1653,-0.7548,-1.6126,-0.0862,0.0161,0.2164,28.5396,-6.9177,-125.4236,37.422802596130076,-122.16399452547374,28.8475,1.5065
2024-11-15T22:01:20.876Z,0.0979,-0.7339,-2.0267,0.0019,-0.0589,0.1487,28.4942,-6.9064,-125.3503,37.422802596130076,-122.16399452547374,28.8475,1.5065
2024-11-15T22:01:20.887Z,0.2208,-0.6577,-2.3578,0.0357,-0.1124,0.0861,28.2652,-7.0971,-125.3452,37.422802596130076,-122.16399452547374,28.8475,1.5065
2024-11-15T22:01:20.895Z,0.2208,-0.6577,-2.3578,0.0411,-0.1417,0.0454,28.2653,-6.9421,-125.3993,37.422802596130076,-122.16399452547374,28.8475,1.5065
2024-11-15T22:01:20.906Z,0.3523,-0.4811,-2.8628,0.0217,-0.1449,0.0345,27.9962,-7.0089,-125.2011,37.422802596130076,-122.16399452547374,28.8475,1.5065
2024-11-15T22:01:20.916Z,0.3306,-0.3502,-2.8725,0.0034,-0.1365,0.0417,28.1135,-6.9841,-125.3995,37.422802596130076,-122.16399452547374,28.8475,1.5065
2024-11-15T22:01:20.926Z,0.3306,-0.3502,-2.8725,-0.0016,-0.1251,0.0621,28.1105,-7.0222,-125.3932,37.422802596130076,-122.16399452547374,28.8475,1.5065
2024-11-15T22:01:20.937Z,0.3440,-0.1937,-2.4725,0.0214,-0.1055,0.0729,27.8642,-6.8991,-125.4725,37.422802596130076,-122.16399452547374,28.8475,1.5065
2024-11-15T22:01:20.945Z,0.5023,-0.0947,-2.1060,0.0774,-0.0764,0.0630,27.8701,-7.1614,-125.2027,37.422802596130076,-122.16399452547374,28.8475,1.5065
2024-11-15T22:01:20.956Z,0.5023,-0.0947,-2.1060,0.1574,-0.0405,0.0245,27.7963,-7.1155,-125.1530,37.422802596130076,-122.16399452547374,28.8475,1.5065
2024-11-15T22:01:20.966Z,1.1023,0.2233,-1.2718,0.2403,-0.0058,-0.0327,27.8158,-7.1111,-125.5061,37.422802596130076,-122.16399452547374,28.8475,1.5065
2024-11-15T22:01:20.976Z,1.2772,0.2724,-1.0691,0.2984,0.0029,-0.0948,27.6904,-7.3875,-125.4081,37.422802596130076,-122.16399452547374,28.8475,1.5065
2024-11-15T22:01:20.987Z,1.2772,0.2724,-1.0691,0.3068,0.0329,-0.1436,27.7025,-7.5367,-125.3600,37.422802596130076,-122.16399452547374,28.8475,1.5065
2024-11-15T22:01:20.995Z,1.1267,0.2715,-0.9130,0.2753,0.1031,-0.1488,27.7875,-7.5960,-125.4232,37.422802596130076,-122.16399452547374,28.8475,1.5065
2024-11-15T22:01:21.006Z,0.8483,0.2578,-0.6548,0.2753,0.1031,-0.1488,27.7875,-7.5960,-125.4232,37.422802596130076,-122.16399452547374,28.8475,1.5065
2024-11-15T22:01:21.016Z,0.8483,0.2578,-0.6548,0.1554,0.3306,0.0354,27.9027,-7.7794,-125.3225,37.422802596130076,-122.16399452547374,28.8475,1.5065
2024-11-15T22:01:21.026Z,0.1600,0.2648,0.2850,0.1223,0.4479,0.1879,28.1536,-7.8512,-125.4518,37.422802596130076,-122.16399452547374,28.8475,1.5065
2024-11-15T22:01:21.037Z,-0.0520,0.2440,0.8813,0.1223,0.4479,0.1879,28.1536,-7.8512,-125.4518,37.422807512735304,-122.16400745250716,28.9140,1.5289
2024-11-15T22:01:21.045Z,-0.0520,0.2440,0.8813,0.0586,0.5184,0.4244,28.5533,-8.3294,-125.0482,37.422807512735304,-122.16400745250716,28.9140,1.5289
2024-11-15T22:01:21.055Z,-0.3183,-0.2511,1.4527,-0.0024,0.4387,0.4560,28.5618,-8.2904,-125.2266,37.422807512735304,-122.16400745250716,28.9140,1.5289
2024-11-15T22:01:21.066Z,-0.2637,-0.6418,1.3561,-0.0898,0.2840,0.3970,28.5569,-8.3970,-125.0753,37.422807512735304,-122.16400745250716,28.9140,1.5289
2024-11-15T22:01:21.075Z,-0.2637,-0.6418,1.3561,-0.1975,0.0919,0.2497,28.5569,-8.3970,-125.0753,37.422807512735304,-122.16400745250716,28.9140,1.5289
2024-11-15T22:01:21.087Z,0.2522,-0.8297,1.3225,-0.3133,-0.1186,0.0767,28.4806,-8.4807,-124.8861,37.422807512735304,-122.16400745250716,28.9140,1.5289
2024-11-15T22:01:21.095Z,0.3391,-0.6222,1.3858,-0.4369,-0.3301,-0.0781,28.1833,-8.2136,-125.0005,37.422807512735304,-122.16400745250716,28.9140,1.5289
2024-11-15T22:01:21.106Z,0.3391,-0.6222,1.3858,-0.5718,-0.4857,-0.1822,28.1002,-7.9115,-125.2059,37.422807512735304,-122.16400745250716,28.9140,1.5289
2024-11-15T22:01:21.116Z,0.6530,0.3456,1.3542,-0.7551,-0.5218,-0.2007,27.9724,-7.7288,-125.0414,37.422807512735304,-122.16400745250716,28.9140,1.5289
2024-11-15T22:01:21.126Z,0.5516,0.6805,1.2111,-0.9826,-0.3845,-0.1222,27.6060,-7.2087,-125.3315,37.422807512735304,-122.16400745250716,28.9140,1.5289
2024-11-15T22:01:21.137Z,0.5516,0.6805,1.2111,-1.2101,-0.1360,0.0323,27.5511,-6.6852,-125.3073,37.422807512735304,-122.16400745250716,28.9140,1.5289
2024-11-15T22:01:21.145Z,-0.4262,-0.2220,1.7304,-1.3550,0.1308,0.1816,27.5670,-5.9545,-125.2745,37.422807512735304,-122.16400745250716,28.9140,1.5289
2024-11-15T22:01:21.156Z,-0.7148,-0.6881,2.8093,-1.3550,0.1308,0.1816,27.3525,-5.2430,-125.5592,37.422807512735304,-122.16400745250716,28.9140,1.5289
2024-11-15T22:01:21.166Z,-0.7148,-0.6881,2.8093,-1.1586,0.4313,0.3851,27.5428,-4.4887,-125.4898,37.422807512735304,-122.16400745250716,28.9140,1.5289
2024-11-15T22:01:21.176Z,-1.0795,-1.8406,5.4846,-0.7984,0.3441,0.3674,27.7156,-4.3438,-125.2107,37.422807512735304,-122.16400745250716,28.9140,1.5289
2024-11-15T22:01:21.188Z,-0.7298,-1.9039,6.0719,-0.3298,0.1032,0.2213,27.6999,-4.1201,-125.1126,37.422807512735304,-122.16400745250716,28.9140,1.5289
2024-11-15T22:01:21.196Z,-0.7298,-1.9039,6.0719,0.1317,-0.1624,-0.0339,27.7325,-3.9662,-125.1339,37.422807512735304,-122.16400745250716,28.9140,1.5289
2024-11-15T22:01:21.206Z,0.3654,-1.0661,4.8483,0.4610,-0.2897,-0.3097,27.5213,-4.0789,-125.0935,37.422807512735304,-122.16400745250716,28.9140,1.5289
2024-11-15T22:01:21.216Z,0.5880,-0.7648,3.5235,0.6075,-0.2409,-0.5032,27.4391,-4.5723,-125.1997,37.422807512735304,-122.16400745250716,28.9140,1.5289
2024-11-15T22:01:21.226Z,0.5880,-0.7648,3.5235,0.5475,-0.1139,-0.5637,27.4014,-4.7308,-125.5952,37.422807512735304,-122.16400745250716,28.9140,1.5289
2024-11-15T22:01:21.237Z,-0.0213,-0.3072,0.8675,0.3233,0.1038,-0.4918,27.3441,-4.6922,-125.3325,37.422807512735304,-122.16400745250716,28.9140,1.5289
2024-11-15T22:01:21.245Z,-0.5857,-0.1320,0.1373,0.3233,0.1038,-0.4918,27.2594,-4.6490,-125.1182,37.422807512735304,-122.16400745250716,28.9140,1.5289
2024-11-15T22:01:21.255Z,-0.5857,-0.1320,0.1373,-0.1121,0.2168,-0.0996,27.5283,-4.8699,-125.2579,37.422807512735304,-122.16400745250716,28.9140,1.5289
2024-11-15T22:01:21.266Z,-1.5659,0.2438,-0.1012,-0.1831,0.0294,0.0822,27.5215,-4.7365,-125.1133,37.422807512735304,-122.16400745250716,28.9140,1.5289
2024-11-15T22:01:21.276Z,-1.6213,0.2261,0.0792,-0.1858,-0.1680,0.2097,27.4638,-4.6944,-125.1809,37.422807512735304,-122.16400745250716,28.9140,1.5289
2024-11-15T22:01:21.287Z,-1.6213,0.2261,0.0792,-0.1433,-0.3307,0.2594,27.1858,-4.5994,-124.8260,37.422807512735304,-122.16400745250716,28.9140,1.5289
2024-11-15T22:01:21.295Z,-0.9670,-0.0311,-0.0816,-0.0810,-0.4279,0.2396,26.8786,-4.6254,-125.0891,37.422807512735304,-122.16400745250716,28.9140,1.5289
2024-11-15T22:01:21.307Z,-0.6221,-0.1372,-0.4077,-0.0810,-0.4279,0.2396,26.5772,-4.6975,-125.2262,37.422807512735304,-122.16400745250716,28.9140,1.5289
2024-11-15T22:01:21.316Z,-0.6221,-0.1372,-0.4077,0.0943,-0.4938,0.0990,26.1378,-4.7603,-125.2910,37.422807512735304,-122.16400745250716,28.9140,1.5289
2024-11-15T22:01:21.326Z,-0.3344,-0.2602,-1.0981,0.2169,-0.5110,0.0196,26.0741,-4.7252,-125.0684,37.422807512735304,-122.16400745250716,28.9140,1.5289
2024-11-15T22:01:21.338Z,-0.2708,-0.1554,-1.5061,0.3345,-0.5270,-0.0379,25.7423,-5.0041,-125.5925,37.422807512735304,-122.16400745250716,28.9140,1.5289
2024-11-15T22:01:21.345Z,-0.2708,-0.1554,-1.5061,0.3345,-0.5270,-0.0379,25.5549,-5.2682,-125.4698,37.422807512735304,-122.16400745250716,28.9140,1.5289
2024-11-15T22:01:21.355Z,-0.1457,0.2853,-2.4370,0.4634,-0.4695,-0.0378,25.2222,-5.6842,-126.0288,37.422807512735304,-122.16400745250716,28.9140,1.5289
2024-11-15T22:01:21.366Z,-0.1457,0.2853,-2.4370,0.4634,-0.4695,-0.0378,24.9647,-5.7474,-125.6246,37.422807512735304,-122.16400745250716,28.9140,1.5289
2024-11-15T22:01:21.376Z,-0.1178,0.5088,-2.8566,0.4182,-0.2698,0.0945,24.7339,-6.0819,-125.7708,37.422807512735304,-122.16400745250716,28.9140,1.5289
2024-11-15T22:01:21.388Z,0.0312,0.9571,-3.3811,0.3471,-0.1555,0.1734,24.7339,-6.0819,-125.7708,37.422807512735304,-122.16400745250716,28.9140,1.5289
2024-11-15T22:01:21.396Z,0.0312,0.9571,-3.3811,0.2863,-0.0855,0.2282,24.5252,-6.3057,-126.0903,37.422807512735304,-122.16400745250716,28.9140,1.5289
2024-11-15T22:01:21.406Z,0.0506,0.9589,-3.4304,0.2413,-0.0559,0.2468,24.5823,-6.4467,-126.0896,37.422807512735304,-122.16400745250716,28.9140,1.5289
2024-11-15T22:01:21.416Z,0.1158,0.7997,-3.0469,0.2205,-0.0624,0.2294,24.3365,-6.4185,-125.7744,37.422807512735304,-122.16400745250716,28.9140,1.5289
2024-11-15T22:01:21.427Z,0.1266,0.6921,-2.7400,0.2081,-0.0708,0.1803,24.2084,-6.7275,-125.6756,37.422807512735304,-122.16400745250716,28.9140,1.5289
2024-11-15T22:01:21.438Z,0.1266,0.6921,-2.7400,0.2243,-0.0721,0.1220,24.2361,-6.8887,-126.3340,37.422807512735304,-122.16400745250716,28.9140,1.5289
2024-11-15T22:01:21.445Z,0.1518,0.4702,-1.8160,0.2243,-0.0721,0.1220,24.1492,-7.0335,-126.2313,37.422807512735304,-122.16400745250716,28.9140,1.5289
2024-11-15T22:01:21.457Z,0.1509,0.3668,-1.2970,0.3520,-0.0982,-0.0278,24.0279,-6.9953,-126.2755,37.422807512735304,-122.16400745250716,28.9140,1.5289
2024-11-15T22:01:21.466Z,0.1509,0.3668,-1.2970,0.4207,-0.1139,-0.1007,24.0956,-7.3392,-125.9717,37.422807512735304,-122.16400745250716,28.9140,1.5289
2024-11-15T22:01:21.476Z,-0.1076,-0.0128,-0.7209,0.4642,-0.1183,-0.1620,23.7552,-7.6194,-126.2548,37.422807512735304,-122.16400745250716,28.9140,1.5289
2024-11-15T22:01:21.489Z,-0.2795,-0.1680,-0.5081,0.4798,-0.1170,-0.2032,23.5774,-7.8046,-126.2922,37.422807512735304,-122.16400745250716,28.9140,1.5289
2024-11-15T22:01:21.495Z,-0.2795,-0.1680,-0.5081,0.4798,-0.1170,-0.2032,23.6363,-8.1501,-126.0790,37.422807512735304,-122.16400745250716,28.9140,1.5289
2024-11-15T22:01:21.505Z,-0.5962,-0.1218,-0.2040,0.4704,-0.1348,-0.2143,23.4530,-8.2268,-126.6009,37.422807512735304,-122.16400745250716,28.9140,1.5289
2024-11-15T22:01:21.517Z,-0.5962,-0.1218,-0.2040,0.3814,-0.1649,-0.1882,23.3144,-8.2308,-126.4368,37.422807512735304,-122.16400745250716,28.9140,1.5289
2024-11-15T22:01:21.525Z,-0.6828,-0.0131,0.0129,0.3814,-0.1649,-0.1882,23.2078,-8.4023,-126.1775,37.422807512735304,-122.16400745250716,28.9140,1.5289
2024-11-15T22:01:21.537Z,-0.7331,0.0230,0.5256,0.2838,-0.1260,-0.1603,23.2346,-8.6708,-126.0960,37.422807512735304,-122.16400745250716,28.9140,1.5289
2024-11-15T22:01:21.546Z,-0.7331,0.0230,0.5256,0.2838,-0.1260,-0.1603,23.0875,-8.7336,-126.2246,37.422807512735304,-122.16400745250716,28.9140,1.5289
2024-11-15T22:01:21.557Z,-0.5926,0.0913,0.9142,0.2845,-0.0501,-0.2137,22.8813,-9.0215,-126.4287,37.422807512735304,-122.16400745250716,28.9140,1.5289
2024-11-15T22:01:21.566Z,-0.1853,0.2654,1.6658,0.2845,-0.0501,-0.2137,22.9806,-9.1104,-126.2458,37.422807512735304,-122.16400745250716,28.9140,1.5289
2024-11-15T22:01:21.577Z,-0.1853,0.2654,1.6658,0.3633,0.1498,-0.3036,22.8643,-9.2579,-126.4079,37.422807512735304,-122.16400745250716,28.9140,1.5289
2024-11-15T22:01:21.587Z,0.0514,0.2546,2.0545,0.3633,0.1498,-0.3036,23.1352,-9.3815,-126.0925,37.422807512735304,-122.16400745250716,28.9140,1.5289
2024-11-15T22:01:21.595Z,0.2759,0.3054,1.9483,0.3681,0.2372,-0.3410,23.1560,-9.4764,-126.1481,37.422807512735304,-122.16400745250716,28.9140,1.5289
2024-11-15T22:01:21.606Z,0.2759,0.3054,1.9483,0.3153,0.3024,-0.3713,23.2636,-9.5155,-126.0193,37.422807512735304,-122.16400745250716,28.9140,1.5289
2024-11-15T22:01:21.616Z,0.3486,0.3946,1.5854,0.1862,0.3565,-0.3873,23.2934,-9.3495,-125.9053,37.422807512735304,-122.16400745250716,28.9140,1.5289
2024-11-15T22:01:21.626Z,-0.0665,0.1236,0.8894,-0.0229,0.4004,-0.3581,23.6697,-9.2509,-125.8637,37.422807512735304,-122.16400745250716,28.9140,1.5289
2024-11-15T22:01:21.639Z,-0.5759,-0.4366,0.7941,-0.2733,0.3945,-0.2933,23.8005,-8.9903,-125.7572,37.422807512735304,-122.16400745250716,28.9140,1.5289
2024-11-15T22:01:21.645Z,-0.5759,-0.4366,0.7941,-0.4941,0.2934,-0.2142,23.9669,-8.7417,-126.1829,37.422807512735304,-122.16400745250716,28.9140,1.5289
2024-11-15T22:01:21.656Z,-0.9831,-1.3674,1.6173,-0.5932,0.1110,-0.1490,23.6258,-8.5160,-125.8296,37.422807512735304,-122.16400745250716,28.9140,1.5289
2024-11-15T22:01:21.666Z,-0.9831,-1.3674,1.6173,-0.5382,-0.1435,-0.1400,23.4832,-8.0517,-125.9998,37.422807512735304,-122.16400745250716,28.9140,1.5289
2024-11-15T22:01:21.675Z,-0.5551,-1.2847,1.9896,-0.3659,-0.3845,-0.1953,23.3855,-7.9515,-125.8911,37.422807512735304,-122.16400745250716,28.9140,1.5289
2024-11-15T22:01:21.687Z,0.6873,-0.8128,1.7032,-0.1720,-0.4706,-0.2781,23.1604,-7.8562,-126.4357,37.422807512735304,-122.16400745250716,28.9140,1.5289
2024-11-15T22:01:21.696Z,0.6873,-0.8128,1.7032,0.0692,-0.0886,-0.3644,23.0133,-7.8199,-126.0704,37.422807512735304,-122.16400745250716,28.9140,1.5289
2024-11-15T22:01:21.706Z,0.9682,-0.6705,1.1864,0.0750,0.2248,-0.3452,22.8978,-7.7769,-126.0428,37.422807512735304,-122.16400745250716,28.9140,1.5289
2024-11-15T22:01:21.716Z,0.9297,-0.2887,0.0488,0.0118,0.4988,-0.2813,23.2697,-7.6852,-126.0308,37.422807512735304,-122.16400745250716,28.9140,1.5289
